consent_key.keys,consent_key.rt,intro_key_2.keys,intro_key_2.rt,key_resp_4.keys,key_resp_4.rt,key_resp_5.keys,key_resp_5.rt,key_resp_6.keys,key_resp_6.rt,key_resp_7.keys,key_resp_7.rt,keyTraining.keys,keyTraining.corr,keyTraining.rt,practiceloop.thisRepN,practiceloop.thisTrialN,practiceloop.thisN,practiceloop.thisIndex,practiceloop.ran,s11,s1_1,s12,s22,s13,s23,s33,s14,s24,s34,s44,s15,s25,s35,s45,s55,t11,t1_1,t12,t22,t13,t23,t33,t14,t24,t34,t44,t15,t25,t35,t45,t55,corrans,study,o11,o1_1,o12,o22,o13,o23,o33,o14,o24,o34,o44,o15,o25,o35,o45,o55,ot11,ot1_1,ot12,ot22,ot13,ot23,ot33,ot14,ot24,ot34,ot44,ot15,ot25,ot35,ot45,ot55,participant,session,date,expName,psychopyVersion,OS,frameRate,STUDY_ID,key_resp_2.keys,key_resp_2.rt,key_resp.keys,key_resp.corr,key_resp.rt,testloop.thisRepN,testloop.thisTrialN,testloop.thisN,testloop.thisIndex,testloop.ran,setsize,key_resp_3.keys,key_resp_3.rt
y,3.24354,space,24.368085,space,2.26092,s,31.714165,d,1.562705,space,3.565915,s,1,1.270835,0,0,0,0,1,images/06impossible.bmp,,,,,,,,,,,,,,,,images/06impossible.bmp,,,,,,,,,,,,,,,,s,,0,0,288,216,144,72,0,288,216,144,72,0,288,216,144,72,0,0,288,216,144,72,0,288,216,144,72,0,288,216,144,72,5d30eb1a18d10b001813369e,60463557820f8508fdb1e39c,2021-03-08_15h33.04.286,Impossible2021,2020.1.3,MacIntel,60,60462d2f8138f40887a79fc4,,,,,,,,,,,,,
,,,,,,,,,,,,d,1,1.191,0,1,1,1,1,,images/06impossible.bmp,,,,,,,,,,,,,,,,images/06impossible.bmp,,,,,,,,,,,,,,,d,,216,216,144,72,0,288,216,144,72,0,288,216,144,72,0,288,144,144,72,0,288,216,144,72,0,288,216,144,72,0,288,216,5d30eb1a18d10b001813369e,60463557820f8508fdb1e39c,2021-03-08_15h33.04.286,Impossible2021,2020.1.3,MacIntel,60,60462d2f8138f40887a79fc4,,,,,,,,,,,,,
,,,,,,,,,,,,s,1,1.076085,0,2,2,2,1,,,images/06impossible.bmp,images/06impossible.bmp,,,,,,,,,,,,,,,,images/06impossible.bmp,,,,,,,,,,,,,s,,288,288,216,144,72,0,288,216,144,72,0,288,216,144,72,0,288,288,216,144,72,0,288,216,144,72,0,288,216,144,72,0,5d30eb1a18d10b001813369e,60463557820f8508fdb1e39c,2021-03-08_15h33.04.286,Impossible2021,2020.1.3,MacIntel,60,60462d2f8138f40887a79fc4,,,,,,,,,,,,,
,,,,,,,,,,,,d,1,1.23271,0,3,3,3,1,,,images/06impossible.bmp,images/06impossible.bmp,,,,,,,,,,,,,,,images/06impossible.bmp,,,,,,,,,,,,,,d,,144,144,72,0,288,216,144,72,0,288,216,144,72,0,288,216,72,72,0,288,216,144,72,0,288,216,144,72,0,288,216,144,5d30eb1a18d10b001813369e,60463557820f8508fdb1e39c,2021-03-08_15h33.04.286,Impossible2021,2020.1.3,MacIntel,60,60462d2f8138f40887a79fc4,,,,,,,,,,,,,
,,,,,,,,,,,,s,1,1.349415,0,4,4,4,1,,,,,images/06impossible.bmp,images/06impossible.bmp,images/06impossible.bmp,,,,,,,,,,,,,,images/06impossible.bmp,,,,,,,,,,,,s,,216,216,144,72,0,288,216,144,72,0,288,216,144,72,0,288,216,216,144,72,0,288,216,144,72,0,288,216,144,72,0,288,5d30eb1a18d10b001813369e,60463557820f8508fdb1e39c,2021-03-08_15h33.04.286,Impossible2021,2020.1.3,MacIntel,60,60462d2f8138f40887a79fc4,,,,,,,,,,,,,
,,,,,,,,,,,,d,1,0.987665,0,5,5,5,1,,,,,images/06impossible.bmp,images/06impossible.bmp,images/06impossible.bmp,,,,,,,,,,,,,,,,images/06impossible.bmp,,,,,,,,,,d,,216,216,144,72,0,288,216,144,72,0,288,216,144,72,0,288,144,144,72,0,288,216,144,72,0,288,216,144,72,0,288,216,5d30eb1a18d10b001813369e,60463557820f8508fdb1e39c,2021-03-08_15h33.04.286,Impossible2021,2020.1.3,MacIntel,60,60462d2f8138f40887a79fc4,,,,,,,,,,,,,
,,,,,,,,,,,,,,,,,,,,,images/65possible.bmp,,,,,,,,,,,,,,,,images/65possible.bmp,,,,,,,,,,,,,,,d,possible,144,144,72,0,288,216,144,72,0,288,216,144,72,0,288,216,72,72,0,288,216,144,72,0,288,216,144,72,0,288,216,144,5d30eb1a18d10b001813369e,60463557820f8508fdb1e39c,2021-03-08_15h33.04.286,Impossible2021,2020.1.3,MacIntel,60,60462d2f8138f40887a79fc4,space,1.692165,d,1,1.08729,0,0,0,22,1,1,,
,,,,,,,,,,,,,,,,,,,,,,,,,,,,,,,images/24impossible.bmp,images/24impossible.bmp,images/24impossible.bmp,images/24impossible.bmp,images/24impossible.bmp,,,,,,,,,,,,images/24impossible.bmp,,,,,s,impossible,0,0,288,216,144,72,0,288,216,144,72,0,288,216,144,72,0,0,288,216,144,72,0,288,216,144,72,0,288,216,144,72,5d30eb1a18d10b001813369e,60463557820f8508fdb1e39c,2021-03-08_15h33.04.286,Impossible2021,2020.1.3,MacIntel,60,60462d2f8138f40887a79fc4,,,d,0,1.59429,0,1,1,100,1,5,,
,,,,,,,,,,,,,,,,,,,,,,,,images/22impossible.bmp,images/22impossible.bmp,images/22impossible.bmp,,,,,,,,,,,,,,,,images/22impossible.bmp,,,,,,,,,,s,impossible,216,216,144,72,0,288,216,144,72,0,288,216,144,72,0,288,216,216,144,72,0,288,216,144,72,0,288,216,144,72,0,288,5d30eb1a18d10b001813369e,60463557820f8508fdb1e39c,2021-03-08_15h33.04.286,Impossible2021,2020.1.3,MacIntel,60,60462d2f8138f40887a79fc4,,,s,1,1.05062,0,2,2,51,1,3,,
,,,,,,,,,,,,,,,,,,,,,,images/42impossible.bmp,images/42impossible.bmp,,,,,,,,,,,,,,,,images/42impossible.bmp,,,,,,,,,,,,,d,impossible,144,144,72,0,288,216,144,72,0,288,216,144,72,0,288,216,72,72,0,288,216,144,72,0,288,216,144,72,0,288,216,144,5d30eb1a18d10b001813369e,60463557820f8508fdb1e39c,2021-03-08_15h33.04.286,Impossible2021,2020.1.3,MacIntel,60,60462d2f8138f40887a79fc4,,,d,1,0.93188,0,3,3,43,1,2,,
,,,,,,,,,,,,,,,,,,,,,,,,,,,images/08possible.bmp,images/08possible.bmp,images/08possible.bmp,images/08possible.bmp,,,,,,,,,,,,,,,images/08possible.bmp,,,,,,,s,possible,288,288,216,144,72,0,288,216,144,72,0,288,216,144,72,0,288,288,216,144,72,0,288,216,144,72,0,288,216,144,72,0,5d30eb1a18d10b001813369e,60463557820f8508fdb1e39c,2021-03-08_15h33.04.286,Impossible2021,2020.1.3,MacIntel,60,60462d2f8138f40887a79fc4,,,s,1,1.65971,0,4,4,74,1,4,,
,,,,,,,,,,,,,,,,,,,,,,,,images/25impossible.bmp,images/25impossible.bmp,images/25impossible.bmp,,,,,,,,,,,,,,images/25impossible.bmp,,,,,,,,,,,,s,impossible,72,72,0,288,216,144,72,0,288,216,144,72,0,288,216,144,72,72,0,288,216,144,72,0,288,216,144,72,0,288,216,144,5d30eb1a18d10b001813369e,60463557820f8508fdb1e39c,2021-03-08_15h33.04.286,Impossible2021,2020.1.3,MacIntel,60,60462d2f8138f40887a79fc4,,,d,0,1.24796,0,5,5,53,1,3,,
,,,,,,,,,,,,,,,,,,,,,,,,,,,images/05possible.bmp,images/05possible.bmp,images/05possible.bmp,images/05possible.bmp,,,,,,,,,,,,,,,,images/05possible.bmp,,,,,,s,possible,216,216,144,72,0,288,216,144,72,0,288,216,144,72,0,288,216,216,144,72,0,288,216,144,72,0,288,216,144,72,0,288,5d30eb1a18d10b001813369e,60463557820f8508fdb1e39c,2021-03-08_15h33.04.286,Impossible2021,2020.1.3,MacIntel,60,60462d2f8138f40887a79fc4,,,s,1,1.27758,0,6,6,73,1,4,,
,,,,,,,,,,,,,,,,,,,,,,,,images/03impossible.bmp,images/03impossible.bmp,images/03impossible.bmp,,,,,,,,,,,,,,,images/03impossible.bmp,,,,,,,,,,,s,impossible,72,72,0,288,216,144,72,0,288,216,144,72,0,288,216,144,72,72,0,288,216,144,72,0,288,216,144,72,0,288,216,144,5d30eb1a18d10b001813369e,60463557820f8508fdb1e39c,2021-03-08_15h33.04.286,Impossible2021,2020.1.3,MacIntel,60,60462d2f8138f40887a79fc4,,,s,1,2.644245,0,7,7,48,1,3,,
,,,,,,,,,,,,,,,,,,,,,,,,images/05impossible.bmp,images/05impossible.bmp,images/05impossible.bmp,,,,,,,,,,,,,,,,images/05impossible.bmp,,,,,,,,,,d,impossible,216,216,144,72,0,288,216,144,72,0,288,216,144,72,0,288,144,144,72,0,288,216,144,72,0,288,216,144,72,0,288,216,5d30eb1a18d10b001813369e,60463557820f8508fdb1e39c,2021-03-08_15h33.04.286,Impossible2021,2020.1.3,MacIntel,60,60462d2f8138f40887a79fc4,,,d,1,1.001035,0,8,8,55,1,3,,
,,,,,,,,,,,,,,,,,,,,,,,,images/55possible.bmp,images/55possible.bmp,images/55possible.bmp,,,,,,,,,,,,,,images/55possible.bmp,,,,,,,,,,,,s,possible,72,72,0,288,216,144,72,0,288,216,144,72,0,288,216,144,72,72,0,288,216,144,72,0,288,216,144,72,0,288,216,144,5d30eb1a18d10b001813369e,60463557820f8508fdb1e39c,2021-03-08_15h33.04.286,Impossible2021,2020.1.3,MacIntel,60,60462d2f8138f40887a79fc4,,,s,1,1.043375,0,9,9,63,1,3,,
,,,,,,,,,,,,,,,,,,,,,,images/24possible.bmp,images/24possible.bmp,,,,,,,,,,,,,,,images/24possible.bmp,,,,,,,,,,,,,,s,possible,0,0,288,216,144,72,0,288,216,144,72,0,288,216,144,72,0,0,288,216,144,72,0,288,216,144,72,0,288,216,144,72,5d30eb1a18d10b001813369e,60463557820f8508fdb1e39c,2021-03-08_15h33.04.286,Impossible2021,2020.1.3,MacIntel,60,60462d2f8138f40887a79fc4,,,s,1,1.108125,0,10,10,28,1,2,,
,,,,,,,,,,,,,,,,,,,,,,,,,,,images/22possible.bmp,images/22possible.bmp,images/22possible.bmp,images/22possible.bmp,,,,,,,,,,,,,,,images/22possible.bmp,,,,,,,d,possible,216,216,144,72,0,288,216,144,72,0,288,216,144,72,0,288,144,144,72,0,288,216,144,72,0,288,216,144,72,0,288,216,5d30eb1a18d10b001813369e,60463557820f8508fdb1e39c,2021-03-08_15h33.04.286,Impossible2021,2020.1.3,MacIntel,60,60462d2f8138f40887a79fc4,,,d,1,1.728,0,11,11,81,1,4,,
,,,,,,,,,,,,,,,,,,,,,,images/05possible.bmp,images/05possible.bmp,,,,,,,,,,,,,,,,images/05possible.bmp,,,,,,,,,,,,,d,possible,216,216,144,72,0,288,216,144,72,0,288,216,144,72,0,288,144,144,72,0,288,216,144,72,0,288,216,144,72,0,288,216,5d30eb1a18d10b001813369e,60463557820f8508fdb1e39c,2021-03-08_15h33.04.286,Impossible2021,2020.1.3,MacIntel,60,60462d2f8138f40887a79fc4,,,d,1,0.92329,0,12,12,31,1,2,,
,,,,,,,,,,,,,,,,,,,,,,,,images/24impossible.bmp,images/24impossible.bmp,images/24impossible.bmp,,,,,,,,,,,,,,,images/24impossible.bmp,,,,,,,,,,,d,impossible,0,0,288,216,144,72,0,288,216,144,72,0,288,216,144,72,288,288,216,144,72,0,288,216,144,72,0,288,216,144,72,0,5d30eb1a18d10b001813369e,60463557820f8508fdb1e39c,2021-03-08_15h33.04.286,Impossible2021,2020.1.3,MacIntel,60,60462d2f8138f40887a79fc4,,,s,0,1.36842,0,13,13,58,1,3,,
,,,,,,,,,,,,,,,,,,,,images/42possible.bmp,,,,,,,,,,,,,,,,images/42possible.bmp,,,,,,,,,,,,,,,,d,possible,144,144,72,0,288,216,144,72,0,288,216,144,72,0,288,216,72,72,0,288,216,144,72,0,288,216,144,72,0,288,216,144,5d30eb1a18d10b001813369e,60463557820f8508fdb1e39c,2021-03-08_15h33.04.286,Impossible2021,2020.1.3,MacIntel,60,60462d2f8138f40887a79fc4,,,d,1,0.894995,0,14,14,19,1,1,,
,,,,,,,,,,,,,,,,,,,,,,,,,,,,,,,images/69possible.bmp,images/69possible.bmp,images/69possible.bmp,images/69possible.bmp,images/69possible.bmp,,,,,,,,,,,,,,images/69possible.bmp,,,d,possible,216,216,144,72,0,288,216,144,72,0,288,216,144,72,0,288,144,144,72,0,288,216,144,72,0,288,216,144,72,0,288,216,5d30eb1a18d10b001813369e,60463557820f8508fdb1e39c,2021-03-08_15h33.04.286,Impossible2021,2020.1.3,MacIntel,60,60462d2f8138f40887a79fc4,,,d,1,1.007585,0,15,15,119,1,5,,
,,,,,,,,,,,,,,,,,,,,,,images/25possible.bmp,images/25possible.bmp,,,,,,,,,,,,,,,,images/25possible.bmp,,,,,,,,,,,,,s,possible,72,72,0,288,216,144,72,0,288,216,144,72,0,288,216,144,72,72,0,288,216,144,72,0,288,216,144,72,0,288,216,144,5d30eb1a18d10b001813369e,60463557820f8508fdb1e39c,2021-03-08_15h33.04.286,Impossible2021,2020.1.3,MacIntel,60,60462d2f8138f40887a79fc4,,,s,1,1.42642,0,16,16,29,1,2,,
,,,,,,,,,,,,,,,,,,,,images/55possible.bmp,,,,,,,,,,,,,,,,images/55possible.bmp,,,,,,,,,,,,,,,,d,possible,72,72,0,288,216,144,72,0,288,216,144,72,0,288,216,144,0,0,288,216,144,72,0,288,216,144,72,0,288,216,144,72,5d30eb1a18d10b001813369e,60463557820f8508fdb1e39c,2021-03-08_15h33.04.286,Impossible2021,2020.1.3,MacIntel,60,60462d2f8138f40887a79fc4,,,d,1,0.807455,0,17,17,21,1,1,,
,,,,,,,,,,,,,,,,,,,,,,,,,,,,,,,images/05impossible.bmp,images/05impossible.bmp,images/05impossible.bmp,images/05impossible.bmp,images/05impossible.bmp,,,,,,,,,,,,,,,images/05impossible.bmp,,s,impossible,216,216,144,72,0,288,216,144,72,0,288,216,144,72,0,288,216,216,144,72,0,288,216,144,72,0,288,216,144,72,0,288,5d30eb1a18d10b001813369e,60463557820f8508fdb1e39c,2021-03-08_15h33.04.286,Impossible2021,2020.1.3,MacIntel,60,60462d2f8138f40887a79fc4,,,s,1,1.044875,0,18,18,97,1,5,,
,,,,,,,,,,,,,,,,,,,,,,,,,,,images/55impossible.bmp,images/55impossible.bmp,images/55impossible.bmp,images/55impossible.bmp,,,,,,,,,,,,,,,,images/55impossible.bmp,,,,,,d,impossible,72,72,0,288,216,144,72,0,288,216,144,72,0,288,216,144,0,0,288,216,144,72,0,288,216,144,72,0,288,216,144,72,5d30eb1a18d10b001813369e,60463557820f8508fdb1e39c,2021-03-08_15h33.04.286,Impossible2021,2020.1.3,MacIntel,60,60462d2f8138f40887a79fc4,,,s,0,2.175415,0,19,19,93,1,4,,
,,,,,,,,,,,,,,,,,,,,,images/25impossible.bmp,,,,,,,,,,,,,,,,images/25impossible.bmp,,,,,,,,,,,,,,,d,impossible,72,72,0,288,216,144,72,0,288,216,144,72,0,288,216,144,0,0,288,216,144,72,0,288,216,144,72,0,288,216,144,72,5d30eb1a18d10b001813369e,60463557820f8508fdb1e39c,2021-03-08_15h33.04.286,Impossible2021,2020.1.3,MacIntel,60,60462d2f8138f40887a79fc4,,,d,1,1.44229,0,20,20,11,1,1,,
,,,,,,,,,,,,,,,,,,,,,,,,,,,,,,,images/25impossible.bmp,images/25impossible.bmp,images/25impossible.bmp,images/25impossible.bmp,images/25impossible.bmp,,,,,,,,,,,,,,,,images/25impossible.bmp,d,impossible,72,72,0,288,216,144,72,0,288,216,144,72,0,288,216,144,0,0,288,216,144,72,0,288,216,144,72,0,288,216,144,72,5d30eb1a18d10b001813369e,60463557820f8508fdb1e39c,2021-03-08_15h33.04.286,Impossible2021,2020.1.3,MacIntel,60,60462d2f8138f40887a79fc4,,,d,1,1.183295,0,21,21,107,1,5,,
,,,,,,,,,,,,,,,,,,,,,,,,images/03impossible.bmp,images/03impossible.bmp,images/03impossible.bmp,,,,,,,,,,,,,,,images/03impossible.bmp,,,,,,,,,,,d,impossible,72,72,0,288,216,144,72,0,288,216,144,72,0,288,216,144,0,0,288,216,144,72,0,288,216,144,72,0,288,216,144,72,5d30eb1a18d10b001813369e,60463557820f8508fdb1e39c,2021-03-08_15h33.04.286,Impossible2021,2020.1.3,MacIntel,60,60462d2f8138f40887a79fc4,,,d,1,1.818295,0,22,22,54,1,3,,
,,,,,,,,,,,,,,,,,,,,,,,,,,,images/69impossible.bmp,images/69impossible.bmp,images/69impossible.bmp,images/69impossible.bmp,,,,,,,,,,,,,,images/69impossible.bmp,,,,,,,,d,impossible,216,216,144,72,0,288,216,144,72,0,288,216,144,72,0,288,144,144,72,0,288,216,144,72,0,288,216,144,72,0,288,216,5d30eb1a18d10b001813369e,60463557820f8508fdb1e39c,2021-03-08_15h33.04.286,Impossible2021,2020.1.3,MacIntel,60,60462d2f8138f40887a79fc4,,,d,1,0.802165,0,23,23,95,1,4,,
,,,,,,,,,,,,,,,,,,,,,,,,,,,images/42impossible.bmp,images/42impossible.bmp,images/42impossible.bmp,images/42impossible.bmp,,,,,,,,,,,,,,,,images/42impossible.bmp,,,,,,s,impossible,144,144,72,0,288,216,144,72,0,288,216,144,72,0,288,216,144,144,72,0,288,216,144,72,0,288,216,144,72,0,288,216,5d30eb1a18d10b001813369e,60463557820f8508fdb1e39c,2021-03-08_15h33.04.286,Impossible2021,2020.1.3,MacIntel,60,60462d2f8138f40887a79fc4,,,s,1,1.339545,0,24,24,85,1,4,,
,,,,,,,,,,,,,,,,,,,,images/69possible.bmp,,,,,,,,,,,,,,,,images/69possible.bmp,,,,,,,,,,,,,,,,d,possible,216,216,144,72,0,288,216,144,72,0,288,216,144,72,0,288,144,144,72,0,288,216,144,72,0,288,216,144,72,0,288,216,5d30eb1a18d10b001813369e,60463557820f8508fdb1e39c,2021-03-08_15h33.04.286,Impossible2021,2020.1.3,MacIntel,60,60462d2f8138f40887a79fc4,,,d,1,0.81471,0,25,25,23,1,1,,
,,,,,,,,,,,,,,,,,,,,,,,,,,,images/42impossible.bmp,images/42impossible.bmp,images/42impossible.bmp,images/42impossible.bmp,,,,,,,,,,,,,,,,images/42impossible.bmp,,,,,,d,impossible,144,144,72,0,288,216,144,72,0,288,216,144,72,0,288,216,72,72,0,288,216,144,72,0,288,216,144,72,0,288,216,144,5d30eb1a18d10b001813369e,60463557820f8508fdb1e39c,2021-03-08_15h33.04.286,Impossible2021,2020.1.3,MacIntel,60,60462d2f8138f40887a79fc4,,,d,1,0.99654,0,26,26,91,1,4,,
,,,,,,,,,,,,,,,,,,,,,,images/69impossible.bmp,images/69impossible.bmp,,,,,,,,,,,,,,,,images/69impossible.bmp,,,,,,,,,,,,,s,impossible,216,216,144,72,0,288,216,144,72,0,288,216,144,72,0,288,216,216,144,72,0,288,216,144,72,0,288,216,144,72,0,288,5d30eb1a18d10b001813369e,60463557820f8508fdb1e39c,2021-03-08_15h33.04.286,Impossible2021,2020.1.3,MacIntel,60,60462d2f8138f40887a79fc4,,,s,1,1.10217,0,27,27,41,1,2,,
,,,,,,,,,,,,,,,,,,,,,,,,,,,images/44impossible.bmp,images/44impossible.bmp,images/44impossible.bmp,images/44impossible.bmp,,,,,,,,,,,,,images/44impossible.bmp,,,,,,,,,d,impossible,216,216,144,72,0,288,216,144,72,0,288,216,144,72,0,288,144,144,72,0,288,216,144,72,0,288,216,144,72,0,288,216,5d30eb1a18d10b001813369e,60463557820f8508fdb1e39c,2021-03-08_15h33.04.286,Impossible2021,2020.1.3,MacIntel,60,60462d2f8138f40887a79fc4,,,s,0,1.222125,0,28,28,92,1,4,,
,,,,,,,,,,,,,,,,,,,,,,,,,,,,,,,images/38possible.bmp,images/38possible.bmp,images/38possible.bmp,images/38possible.bmp,images/38possible.bmp,,,,,,,,,,,,images/38possible.bmp,,,,,s,possible,72,72,0,288,216,144,72,0,288,216,144,72,0,288,216,144,72,72,0,288,216,144,72,0,288,216,144,72,0,288,216,144,5d30eb1a18d10b001813369e,60463557820f8508fdb1e39c,2021-03-08_15h33.04.286,Impossible2021,2020.1.3,MacIntel,60,60462d2f8138f40887a79fc4,,,d,0,0.910085,0,29,29,108,1,5,,
,,,,,,,,,,,,,,,,,,,,,,,,,,,,,,,images/55possible.bmp,images/55possible.bmp,images/55possible.bmp,images/55possible.bmp,images/55possible.bmp,,,,,,,,,,,,,,,,images/55possible.bmp,s,possible,72,72,0,288,216,144,72,0,288,216,144,72,0,288,216,144,72,72,0,288,216,144,72,0,288,216,144,72,0,288,216,144,5d30eb1a18d10b001813369e,60463557820f8508fdb1e39c,2021-03-08_15h33.04.286,Impossible2021,2020.1.3,MacIntel,60,60462d2f8138f40887a79fc4,,,s,1,0.97446,0,30,30,111,1,5,,
,,,,,,,,,,,,,,,,,,,,,,,,,,,images/65impossible.bmp,images/65impossible.bmp,images/65impossible.bmp,images/65impossible.bmp,,,,,,,,,,,,,,,images/65impossible.bmp,,,,,,,s,impossible,144,144,72,0,288,216,144,72,0,288,216,144,72,0,288,216,144,144,72,0,288,216,144,72,0,288,216,144,72,0,288,216,5d30eb1a18d10b001813369e,60463557820f8508fdb1e39c,2021-03-08_15h33.04.286,Impossible2021,2020.1.3,MacIntel,60,60462d2f8138f40887a79fc4,,,s,1,1.960835,0,31,31,88,1,4,,
,,,,,,,,,,,,,,,,,,,,,,,,,,,images/38impossible.bmp,images/38impossible.bmp,images/38impossible.bmp,images/38impossible.bmp,,,,,,,,,,,,,,,images/38impossible.bmp,,,,,,,d,impossible,72,72,0,288,216,144,72,0,288,216,144,72,0,288,216,144,0,0,288,216,144,72,0,288,216,144,72,0,288,216,144,72,5d30eb1a18d10b001813369e,60463557820f8508fdb1e39c,2021-03-08_15h33.04.286,Impossible2021,2020.1.3,MacIntel,60,60462d2f8138f40887a79fc4,,,s,0,1.176835,0,32,32,90,1,4,,
,,,,,,,,,,,,,,,,,,,,,images/69possible.bmp,,,,,,,,,,,,,,,,images/69possible.bmp,,,,,,,,,,,,,,,s,possible,216,216,144,72,0,288,216,144,72,0,288,216,144,72,0,288,216,216,144,72,0,288,216,144,72,0,288,216,144,72,0,288,5d30eb1a18d10b001813369e,60463557820f8508fdb1e39c,2021-03-08_15h33.04.286,Impossible2021,2020.1.3,MacIntel,60,60462d2f8138f40887a79fc4,,,s,1,0.792915,0,33,33,17,1,1,,
,,,,,,,,,,,,,,,,,,,,,,,,images/69possible.bmp,images/69possible.bmp,images/69possible.bmp,,,,,,,,,,,,,,images/69possible.bmp,,,,,,,,,,,,d,possible,216,216,144,72,0,288,216,144,72,0,288,216,144,72,0,288,144,144,72,0,288,216,144,72,0,288,216,144,72,0,288,216,5d30eb1a18d10b001813369e,60463557820f8508fdb1e39c,2021-03-08_15h33.04.286,Impossible2021,2020.1.3,MacIntel,60,60462d2f8138f40887a79fc4,,,d,1,0.77725,0,34,34,71,1,3,,
,,,,,,,,,,,,,,,,,,,,,,,,,,,,,,,images/22impossible.bmp,images/22impossible.bmp,images/22impossible.bmp,images/22impossible.bmp,images/22impossible.bmp,,,,,,,,,,,,,,images/22impossible.bmp,,,d,impossible,216,216,144,72,0,288,216,144,72,0,288,216,144,72,0,288,144,144,72,0,288,216,144,72,0,288,216,144,72,0,288,216,5d30eb1a18d10b001813369e,60463557820f8508fdb1e39c,2021-03-08_15h33.04.286,Impossible2021,2020.1.3,MacIntel,60,60462d2f8138f40887a79fc4,,,s,0,1.351165,0,35,35,105,1,5,,
,,,,,,,,,,,,,,,,,,,,,,,,,,,,,,,images/05impossible.bmp,images/05impossible.bmp,images/05impossible.bmp,images/05impossible.bmp,images/05impossible.bmp,,,,,,,,,,,,,,images/05impossible.bmp,,,d,impossible,216,216,144,72,0,288,216,144,72,0,288,216,144,72,0,288,144,144,72,0,288,216,144,72,0,288,216,144,72,0,288,216,5d30eb1a18d10b001813369e,60463557820f8508fdb1e39c,2021-03-08_15h33.04.286,Impossible2021,2020.1.3,MacIntel,60,60462d2f8138f40887a79fc4,,,d,1,1.642625,0,36,36,103,1,5,,
,,,,,,,,,,,,,,,,,,,,,,images/22possible.bmp,images/22possible.bmp,,,,,,,,,,,,,,,,images/22possible.bmp,,,,,,,,,,,,,d,possible,216,216,144,72,0,288,216,144,72,0,288,216,144,72,0,288,144,144,72,0,288,216,144,72,0,288,216,144,72,0,288,216,5d30eb1a18d10b001813369e,60463557820f8508fdb1e39c,2021-03-08_15h33.04.286,Impossible2021,2020.1.3,MacIntel,60,60462d2f8138f40887a79fc4,,,d,1,1.188205,0,37,37,33,1,2,,
,,,,,,,,,,,,,,,,,,,,images/24impossible.bmp,,,,,,,,,,,,,,,,images/24impossible.bmp,,,,,,,,,,,,,,,,d,impossible,0,0,288,216,144,72,0,288,216,144,72,0,288,216,144,72,288,288,216,144,72,0,288,216,144,72,0,288,216,144,72,0,5d30eb1a18d10b001813369e,60463557820f8508fdb1e39c,2021-03-08_15h33.04.286,Impossible2021,2020.1.3,MacIntel,60,60462d2f8138f40887a79fc4,,,d,1,0.70875,0,38,38,10,1,1,,
,,,,,,,,,,,,,,,,,,,,,images/55possible.bmp,,,,,,,,,,,,,,,,images/55possible.bmp,,,,,,,,,,,,,,,s,possible,72,72,0,288,216,144,72,0,288,216,144,72,0,288,216,144,72,72,0,288,216,144,72,0,288,216,144,72,0,288,216,144,5d30eb1a18d10b001813369e,60463557820f8508fdb1e39c,2021-03-08_15h33.04.286,Impossible2021,2020.1.3,MacIntel,60,60462d2f8138f40887a79fc4,,,s,1,0.78454,0,39,39,15,1,1,,
,,,,,,,,,,,,,,,,,,,,,images/24impossible.bmp,,,,,,,,,,,,,,,,images/24impossible.bmp,,,,,,,,,,,,,,,s,impossible,0,0,288,216,144,72,0,288,216,144,72,0,288,216,144,72,0,0,288,216,144,72,0,288,216,144,72,0,288,216,144,72,5d30eb1a18d10b001813369e,60463557820f8508fdb1e39c,2021-03-08_15h33.04.286,Impossible2021,2020.1.3,MacIntel,60,60462d2f8138f40887a79fc4,,,s,1,0.565045,0,40,40,4,1,1,,
,,,,,,,,,,,,,,,,,,,,,,images/38impossible.bmp,images/38impossible.bmp,,,,,,,,,,,,,,,images/38impossible.bmp,,,,,,,,,,,,,,d,impossible,72,72,0,288,216,144,72,0,288,216,144,72,0,288,216,144,0,0,288,216,144,72,0,288,216,144,72,0,288,216,144,72,5d30eb1a18d10b001813369e,60463557820f8508fdb1e39c,2021-03-08_15h33.04.286,Impossible2021,2020.1.3,MacIntel,60,60462d2f8138f40887a79fc4,,,d,1,0.865165,0,41,41,42,1,2,,
,,,,,,,,,,,,,,,,,,,,,,,,,,,images/55impossible.bmp,images/55impossible.bmp,images/55impossible.bmp,images/55impossible.bmp,,,,,,,,,,,,,,images/55impossible.bmp,,,,,,,,s,impossible,72,72,0,288,216,144,72,0,288,216,144,72,0,288,216,144,72,72,0,288,216,144,72,0,288,216,144,72,0,288,216,144,5d30eb1a18d10b001813369e,60463557820f8508fdb1e39c,2021-03-08_15h33.04.286,Impossible2021,2020.1.3,MacIntel,60,60462d2f8138f40887a79fc4,,,s,1,1.02387,0,42,42,87,1,4,,
,,,,,,,,,,,,,,,,,,,,,,,,,,,images/22possible.bmp,images/22possible.bmp,images/22possible.bmp,images/22possible.bmp,,,,,,,,,,,,,,images/22possible.bmp,,,,,,,,s,possible,216,216,144,72,0,288,216,144,72,0,288,216,144,72,0,288,216,216,144,72,0,288,216,144,72,0,288,216,144,72,0,288,5d30eb1a18d10b001813369e,60463557820f8508fdb1e39c,2021-03-08_15h33.04.286,Impossible2021,2020.1.3,MacIntel,60,60462d2f8138f40887a79fc4,,,s,1,1.183835,0,43,43,75,1,4,,
,,,,,,,,,,,,,,,,,,,,,,,,images/44possible.bmp,images/44possible.bmp,images/44possible.bmp,,,,,,,,,,,,,,images/44possible.bmp,,,,,,,,,,,,d,possible,216,216,144,72,0,288,216,144,72,0,288,216,144,72,0,288,144,144,72,0,288,216,144,72,0,288,216,144,72,0,288,216,5d30eb1a18d10b001813369e,60463557820f8508fdb1e39c,2021-03-08_15h33.04.286,Impossible2021,2020.1.3,MacIntel,60,60462d2f8138f40887a79fc4,,,d,1,0.94971,0,44,44,68,1,3,,
,,,,,,,,,,,,,,,,,,,,,,,,images/69possible.bmp,images/69possible.bmp,images/69possible.bmp,,,,,,,,,,,,,,,,images/69possible.bmp,,,,,,,,,,s,possible,216,216,144,72,0,288,216,144,72,0,288,216,144,72,0,288,216,216,144,72,0,288,216,144,72,0,288,216,144,72,0,288,5d30eb1a18d10b001813369e,60463557820f8508fdb1e39c,2021-03-08_15h33.04.286,Impossible2021,2020.1.3,MacIntel,60,60462d2f8138f40887a79fc4,,,d,0,1.92892,0,45,45,65,1,3,,
,,,,,,,,,,,,,,,,,,,,,,,,images/38possible.bmp,images/38possible.bmp,images/38possible.bmp,,,,,,,,,,,,,,,images/38possible.bmp,,,,,,,,,,,d,possible,72,72,0,288,216,144,72,0,288,216,144,72,0,288,216,144,0,0,288,216,144,72,0,288,216,144,72,0,288,216,144,72,5d30eb1a18d10b001813369e,60463557820f8508fdb1e39c,2021-03-08_15h33.04.286,Impossible2021,2020.1.3,MacIntel,60,60462d2f8138f40887a79fc4,,,d,1,1.31417,0,46,46,66,1,3,,
,,,,,,,,,,,,,,,,,,,,images/22impossible.bmp,,,,,,,,,,,,,,,,images/22impossible.bmp,,,,,,,,,,,,,,,,d,impossible,216,216,144,72,0,288,216,144,72,0,288,216,144,72,0,288,144,144,72,0,288,216,144,72,0,288,216,144,72,0,288,216,5d30eb1a18d10b001813369e,60463557820f8508fdb1e39c,2021-03-08_15h33.04.286,Impossible2021,2020.1.3,MacIntel,60,60462d2f8138f40887a79fc4,,,d,1,0.77837,0,47,47,9,1,1,,
,,,,,,,,,,,,,,,,,,,,,images/42possible.bmp,,,,,,,,,,,,,,,,images/42possible.bmp,,,,,,,,,,,,,,,s,possible,144,144,72,0,288,216,144,72,0,288,216,144,72,0,288,216,144,144,72,0,288,216,144,72,0,288,216,144,72,0,288,216,5d30eb1a18d10b001813369e,60463557820f8508fdb1e39c,2021-03-08_15h33.04.286,Impossible2021,2020.1.3,MacIntel,60,60462d2f8138f40887a79fc4,,,s,1,0.731,0,48,48,13,1,1,,
,,,,,,,,,,,,,,,,,,,,,,,,,,,images/44impossible.bmp,images/44impossible.bmp,images/44impossible.bmp,images/44impossible.bmp,,,,,,,,,,,,,,,images/44impossible.bmp,,,,,,,s,impossible,216,216,144,72,0,288,216,144,72,0,288,216,144,72,0,288,216,216,144,72,0,288,216,144,72,0,288,216,144,72,0,288,5d30eb1a18d10b001813369e,60463557820f8508fdb1e39c,2021-03-08_15h33.04.286,Impossible2021,2020.1.3,MacIntel,60,60462d2f8138f40887a79fc4,,,d,0,0.942955,0,49,49,86,1,4,,
,,,,,,,,,,,,,,,,,,,,,,,,images/38possible.bmp,images/38possible.bmp,images/38possible.bmp,,,,,,,,,,,,,,,images/38possible.bmp,,,,,,,,,,,s,possible,72,72,0,288,216,144,72,0,288,216,144,72,0,288,216,144,72,72,0,288,216,144,72,0,288,216,144,72,0,288,216,144,5d30eb1a18d10b001813369e,60463557820f8508fdb1e39c,2021-03-08_15h33.04.286,Impossible2021,2020.1.3,MacIntel,60,60462d2f8138f40887a79fc4,,,d,0,0.84512,0,50,50,60,1,3,,
,,,,,,,,,,,,,,,,,,,,images/38possible.bmp,,,,,,,,,,,,,,,,images/38possible.bmp,,,,,,,,,,,,,,,,s,possible,72,72,0,288,216,144,72,0,288,216,144,72,0,288,216,144,72,72,0,288,216,144,72,0,288,216,144,72,0,288,216,144,5d30eb1a18d10b001813369e,60463557820f8508fdb1e39c,2021-03-08_15h33.04.286,Impossible2021,2020.1.3,MacIntel,60,60462d2f8138f40887a79fc4,,,s,1,0.70975,0,51,51,12,1,1,,
,,,,,,,,,,,,,,,,,,,,,,,,images/55possible.bmp,images/55possible.bmp,images/55possible.bmp,,,,,,,,,,,,,,,images/55possible.bmp,,,,,,,,,,,d,possible,72,72,0,288,216,144,72,0,288,216,144,72,0,288,216,144,0,0,288,216,144,72,0,288,216,144,72,0,288,216,144,72,5d30eb1a18d10b001813369e,60463557820f8508fdb1e39c,2021-03-08_15h33.04.286,Impossible2021,2020.1.3,MacIntel,60,60462d2f8138f40887a79fc4,,,s,0,0.952165,0,52,52,69,1,3,,
,,,,,,,,,,,,,,,,,,,,,,images/42impossible.bmp,images/42impossible.bmp,,,,,,,,,,,,,,,,images/42impossible.bmp,,,,,,,,,,,,,s,impossible,144,144,72,0,288,216,144,72,0,288,216,144,72,0,288,216,144,144,72,0,288,216,144,72,0,288,216,144,72,0,288,216,5d30eb1a18d10b001813369e,60463557820f8508fdb1e39c,2021-03-08_15h33.04.286,Impossible2021,2020.1.3,MacIntel,60,60462d2f8138f40887a79fc4,,,s,1,0.96229,0,53,53,37,1,2,,
,,,,,,,,,,,,,,,,,,,,,,,,images/65possible.bmp,images/65possible.bmp,images/65possible.bmp,,,,,,,,,,,,,,images/65possible.bmp,,,,,,,,,,,,d,possible,144,144,72,0,288,216,144,72,0,288,216,144,72,0,288,216,72,72,0,288,216,144,72,0,288,216,144,72,0,288,216,144,5d30eb1a18d10b001813369e,60463557820f8508fdb1e39c,2021-03-08_15h33.04.286,Impossible2021,2020.1.3,MacIntel,60,60462d2f8138f40887a79fc4,,,d,1,1.200915,0,54,54,70,1,3,,
,,,,,,,,,,,,,,,,,,,,,,,,,,,images/08possible.bmp,images/08possible.bmp,images/08possible.bmp,images/08possible.bmp,,,,,,,,,,,,,images/08possible.bmp,,,,,,,,,d,possible,288,288,216,144,72,0,288,216,144,72,0,288,216,144,72,0,216,216,144,72,0,288,216,144,72,0,288,216,144,72,0,288,5d30eb1a18d10b001813369e,60463557820f8508fdb1e39c,2021-03-08_15h33.04.286,Impossible2021,2020.1.3,MacIntel,60,60462d2f8138f40887a79fc4,,,d,1,1.549875,0,55,55,80,1,4,,
,,,,,,,,,,,,,,,,,,,,,,,,images/08impossible.bmp,images/08impossible.bmp,images/08impossible.bmp,,,,,,,,,,,,,,,images/08impossible.bmp,,,,,,,,,,,s,impossible,288,288,216,144,72,0,288,216,144,72,0,288,216,144,72,0,288,288,216,144,72,0,288,216,144,72,0,288,216,144,72,0,5d30eb1a18d10b001813369e,60463557820f8508fdb1e39c,2021-03-08_15h33.04.286,Impossible2021,2020.1.3,MacIntel,60,60462d2f8138f40887a79fc4,,,s,1,1.17979,0,56,56,50,1,3,,
,,,,,,,,,,,,,,,,,,,,,,,,,,,images/25possible.bmp,images/25possible.bmp,images/25possible.bmp,images/25possible.bmp,,,,,,,,,,,,,,,images/25possible.bmp,,,,,,,s,possible,72,72,0,288,216,144,72,0,288,216,144,72,0,288,216,144,72,72,0,288,216,144,72,0,288,216,144,72,0,288,216,144,5d30eb1a18d10b001813369e,60463557820f8508fdb1e39c,2021-03-08_15h33.04.286,Impossible2021,2020.1.3,MacIntel,60,60462d2f8138f40887a79fc4,,,s,1,1.39321,0,57,57,77,1,4,,
,,,,,,,,,,,,,,,,,,,,,images/03impossible.bmp,,,,,,,,,,,,,,,,images/03impossible.bmp,,,,,,,,,,,,,,,d,impossible,72,72,0,288,216,144,72,0,288,216,144,72,0,288,216,144,0,0,288,216,144,72,0,288,216,144,72,0,288,216,144,72,5d30eb1a18d10b001813369e,60463557820f8508fdb1e39c,2021-03-08_15h33.04.286,Impossible2021,2020.1.3,MacIntel,60,60462d2f8138f40887a79fc4,,,d,1,0.69554,0,58,58,6,1,1,,
,,,,,,,,,,,,,,,,,,,,,images/08impossible.bmp,,,,,,,,,,,,,,,,images/08impossible.bmp,,,,,,,,,,,,,,,s,impossible,288,288,216,144,72,0,288,216,144,72,0,288,216,144,72,0,288,288,216,144,72,0,288,216,144,72,0,288,216,144,72,0,5d30eb1a18d10b001813369e,60463557820f8508fdb1e39c,2021-03-08_15h33.04.286,Impossible2021,2020.1.3,MacIntel,60,60462d2f8138f40887a79fc4,,,s,1,0.922085,0,59,59,2,1,1,,
,,,,,,,,,,,,,,,,,,,,,,,,,,,images/65impossible.bmp,images/65impossible.bmp,images/65impossible.bmp,images/65impossible.bmp,,,,,,,,,,,,,,,images/65impossible.bmp,,,,,,,d,impossible,144,144,72,0,288,216,144,72,0,288,216,144,72,0,288,216,72,72,0,288,216,144,72,0,288,216,144,72,0,288,216,144,5d30eb1a18d10b001813369e,60463557820f8508fdb1e39c,2021-03-08_15h33.04.286,Impossible2021,2020.1.3,MacIntel,60,60462d2f8138f40887a79fc4,,,d,1,1.480125,0,60,60,94,1,4,,
,,,,,,,,,,,,,,,,,,,,,,images/08possible.bmp,images/08possible.bmp,,,,,,,,,,,,,,,images/08possible.bmp,,,,,,,,,,,,,,s,possible,288,288,216,144,72,0,288,216,144,72,0,288,216,144,72,0,288,288,216,144,72,0,288,216,144,72,0,288,216,144,72,0,5d30eb1a18d10b001813369e,60463557820f8508fdb1e39c,2021-03-08_15h33.04.286,Impossible2021,2020.1.3,MacIntel,60,60462d2f8138f40887a79fc4,,,s,1,1.331335,0,61,61,26,1,2,,
,,,,,,,,,,,,,,,,,,,,,,,,,,,images/24possible.bmp,images/24possible.bmp,images/24possible.bmp,images/24possible.bmp,,,,,,,,,,,,,,,,images/24possible.bmp,,,,,,d,possible,0,0,288,216,144,72,0,288,216,144,72,0,288,216,144,72,288,288,216,144,72,0,288,216,144,72,0,288,216,144,72,0,5d30eb1a18d10b001813369e,60463557820f8508fdb1e39c,2021-03-08_15h33.04.286,Impossible2021,2020.1.3,MacIntel,60,60462d2f8138f40887a79fc4,,,d,1,3.185545,0,62,62,82,1,4,,
,,,,,,,,,,,,,,,,,,,,,,,,,,,,,,,images/55possible.bmp,images/55possible.bmp,images/55possible.bmp,images/55possible.bmp,images/55possible.bmp,,,,,,,,,,,,images/55possible.bmp,,,,,d,possible,72,72,0,288,216,144,72,0,288,216,144,72,0,288,216,144,0,0,288,216,144,72,0,288,216,144,72,0,288,216,144,72,5d30eb1a18d10b001813369e,60463557820f8508fdb1e39c,2021-03-08_15h33.04.286,Impossible2021,2020.1.3,MacIntel,60,60462d2f8138f40887a79fc4,,,d,1,2.776625,0,63,63,117,1,5,,
,,,,,,,,,,,,,,,,,,,,images/65possible.bmp,,,,,,,,,,,,,,,,images/65possible.bmp,,,,,,,,,,,,,,,,s,possible,144,144,72,0,288,216,144,72,0,288,216,144,72,0,288,216,144,144,72,0,288,216,144,72,0,288,216,144,72,0,288,216,5d30eb1a18d10b001813369e,60463557820f8508fdb1e39c,2021-03-08_15h33.04.286,Impossible2021,2020.1.3,MacIntel,60,60462d2f8138f40887a79fc4,,,s,1,0.679705,0,64,64,16,1,1,,
,,,,,,,,,,,,,,,,,,,,,,,,images/44possible.bmp,images/44possible.bmp,images/44possible.bmp,,,,,,,,,,,,,,,,images/44possible.bmp,,,,,,,,,,s,possible,216,216,144,72,0,288,216,144,72,0,288,216,144,72,0,288,216,216,144,72,0,288,216,144,72,0,288,216,144,72,0,288,5d30eb1a18d10b001813369e,60463557820f8508fdb1e39c,2021-03-08_15h33.04.286,Impossible2021,2020.1.3,MacIntel,60,60462d2f8138f40887a79fc4,,,s,1,1.12671,0,65,65,62,1,3,,
,,,,,,,,,,,,,,,,,,,,,,,,images/22impossible.bmp,images/22impossible.bmp,images/22impossible.bmp,,,,,,,,,,,,,,,,images/22impossible.bmp,,,,,,,,,,d,impossible,216,216,144,72,0,288,216,144,72,0,288,216,144,72,0,288,144,144,72,0,288,216,144,72,0,288,216,144,72,0,288,216,5d30eb1a18d10b001813369e,60463557820f8508fdb1e39c,2021-03-08_15h33.04.286,Impossible2021,2020.1.3,MacIntel,60,60462d2f8138f40887a79fc4,,,d,1,1.37762,0,66,66,57,1,3,,
,,,,,,,,,,,,,,,,,,,,,,,,,,,,,,,images/25impossible.bmp,images/25impossible.bmp,images/25impossible.bmp,images/25impossible.bmp,images/25impossible.bmp,,,,,,,,,,,,,images/25impossible.bmp,,,,s,impossible,72,72,0,288,216,144,72,0,288,216,144,72,0,288,216,144,72,72,0,288,216,144,72,0,288,216,144,72,0,288,216,144,5d30eb1a18d10b001813369e,60463557820f8508fdb1e39c,2021-03-08_15h33.04.286,Impossible2021,2020.1.3,MacIntel,60,60462d2f8138f40887a79fc4,,,d,0,2.020955,0,67,67,101,1,5,,
,,,,,,,,,,,,,,,,,,,,,,,,,,,,,,,images/44possible.bmp,images/44possible.bmp,images/44possible.bmp,images/44possible.bmp,images/44possible.bmp,,,,,,,,,,,,,,images/44possible.bmp,,,d,possible,216,216,144,72,0,288,216,144,72,0,288,216,144,72,0,288,144,144,72,0,288,216,144,72,0,288,216,144,72,0,288,216,5d30eb1a18d10b001813369e,60463557820f8508fdb1e39c,2021-03-08_15h33.04.286,Impossible2021,2020.1.3,MacIntel,60,60462d2f8138f40887a79fc4,,,d,1,1.017875,0,68,68,116,1,5,,
,,,,,,,,,,,,,,,,,,,,images/25impossible.bmp,,,,,,,,,,,,,,,,images/25impossible.bmp,,,,,,,,,,,,,,,,s,impossible,72,72,0,288,216,144,72,0,288,216,144,72,0,288,216,144,72,72,0,288,216,144,72,0,288,216,144,72,0,288,216,144,5d30eb1a18d10b001813369e,60463557820f8508fdb1e39c,2021-03-08_15h33.04.286,Impossible2021,2020.1.3,MacIntel,60,60462d2f8138f40887a79fc4,,,s,1,0.815875,0,69,69,5,1,1,,
,,,,,,,,,,,,,,,,,,,,,,,,images/42possible.bmp,images/42possible.bmp,images/42possible.bmp,,,,,,,,,,,,,,images/42possible.bmp,,,,,,,,,,,,d,possible,144,144,72,0,288,216,144,72,0,288,216,144,72,0,288,216,72,72,0,288,216,144,72,0,288,216,144,72,0,288,216,144,5d30eb1a18d10b001813369e,60463557820f8508fdb1e39c,2021-03-08_15h33.04.286,Impossible2021,2020.1.3,MacIntel,60,60462d2f8138f40887a79fc4,,,d,1,1.481625,0,70,70,67,1,3,,
,,,,,,,,,,,,,,,,,,,,,,images/69impossible.bmp,images/69impossible.bmp,,,,,,,,,,,,,,,,images/69impossible.bmp,,,,,,,,,,,,,d,impossible,216,216,144,72,0,288,216,144,72,0,288,216,144,72,0,288,144,144,72,0,288,216,144,72,0,288,216,144,72,0,288,216,5d30eb1a18d10b001813369e,60463557820f8508fdb1e39c,2021-03-08_15h33.04.286,Impossible2021,2020.1.3,MacIntel,60,60462d2f8138f40887a79fc4,,,d,1,0.88383,0,71,71,47,1,2,,
,,,,,,,,,,,,,,,,,,,,,,images/65impossible.bmp,images/65impossible.bmp,,,,,,,,,,,,,,,images/65impossible.bmp,,,,,,,,,,,,,,s,impossible,144,144,72,0,288,216,144,72,0,288,216,144,72,0,288,216,144,144,72,0,288,216,144,72,0,288,216,144,72,0,288,216,5d30eb1a18d10b001813369e,60463557820f8508fdb1e39c,2021-03-08_15h33.04.286,Impossible2021,2020.1.3,MacIntel,60,60462d2f8138f40887a79fc4,,,s,1,1.00733,0,72,72,40,1,2,,
,,,,,,,,,,,,,,,,,,,,,,images/03possible.bmp,images/03possible.bmp,,,,,,,,,,,,,,,images/03possible.bmp,,,,,,,,,,,,,,s,possible,72,72,0,288,216,144,72,0,288,216,144,72,0,288,216,144,72,72,0,288,216,144,72,0,288,216,144,72,0,288,216,144,5d30eb1a18d10b001813369e,60463557820f8508fdb1e39c,2021-03-08_15h33.04.286,Impossible2021,2020.1.3,MacIntel,60,60462d2f8138f40887a79fc4,,,s,1,1.227085,0,73,73,24,1,2,,
,,,,,,,,,,,,,,,,,,,,,,images/03possible.bmp,images/03possible.bmp,,,,,,,,,,,,,,,images/03possible.bmp,,,,,,,,,,,,,,d,possible,72,72,0,288,216,144,72,0,288,216,144,72,0,288,216,144,0,0,288,216,144,72,0,288,216,144,72,0,288,216,144,72,5d30eb1a18d10b001813369e,60463557820f8508fdb1e39c,2021-03-08_15h33.04.286,Impossible2021,2020.1.3,MacIntel,60,60462d2f8138f40887a79fc4,,,d,1,0.86046,0,74,74,30,1,2,,
,,,,,,,,,,,,,,,,,,,,,,,,,,,images/69impossible.bmp,images/69impossible.bmp,images/69impossible.bmp,images/69impossible.bmp,,,,,,,,,,,,,,,,images/69impossible.bmp,,,,,,s,impossible,216,216,144,72,0,288,216,144,72,0,288,216,144,72,0,288,216,216,144,72,0,288,216,144,72,0,288,216,144,72,0,288,5d30eb1a18d10b001813369e,60463557820f8508fdb1e39c,2021-03-08_15h33.04.286,Impossible2021,2020.1.3,MacIntel,60,60462d2f8138f40887a79fc4,,,d,0,0.82729,0,75,75,89,1,4,,
,,,,,,,,,,,,,,,,,,,,,,images/55impossible.bmp,images/55impossible.bmp,,,,,,,,,,,,,,,,images/55impossible.bmp,,,,,,,,,,,,,d,impossible,72,72,0,288,216,144,72,0,288,216,144,72,0,288,216,144,0,0,288,216,144,72,0,288,216,144,72,0,288,216,144,72,5d30eb1a18d10b001813369e,60463557820f8508fdb1e39c,2021-03-08_15h33.04.286,Impossible2021,2020.1.3,MacIntel,60,60462d2f8138f40887a79fc4,,,d,1,1.09892,0,76,76,45,1,2,,
,,,,,,,,,,,,,,,,,,,,,,,,,,,,,,,images/38possible.bmp,images/38possible.bmp,images/38possible.bmp,images/38possible.bmp,images/38possible.bmp,,,,,,,,,,,,,,,,images/38possible.bmp,d,possible,72,72,0,288,216,144,72,0,288,216,144,72,0,288,216,144,0,0,288,216,144,72,0,288,216,144,72,0,288,216,144,72,5d30eb1a18d10b001813369e,60463557820f8508fdb1e39c,2021-03-08_15h33.04.286,Impossible2021,2020.1.3,MacIntel,60,60462d2f8138f40887a79fc4,,,d,1,3.711415,0,77,77,114,1,5,,
,,,,,,,,,,,,,,,,,,,,,,,,,,,images/24possible.bmp,images/24possible.bmp,images/24possible.bmp,images/24possible.bmp,,,,,,,,,,,,,images/24possible.bmp,,,,,,,,,s,possible,0,0,288,216,144,72,0,288,216,144,72,0,288,216,144,72,0,0,288,216,144,72,0,288,216,144,72,0,288,216,144,72,5d30eb1a18d10b001813369e,60463557820f8508fdb1e39c,2021-03-08_15h33.04.286,Impossible2021,2020.1.3,MacIntel,60,60462d2f8138f40887a79fc4,,,d,0,2.240585,0,78,78,76,1,4,,
,,,,,,,,,,,,,,,,,,,,,,,,images/08impossible.bmp,images/08impossible.bmp,images/08impossible.bmp,,,,,,,,,,,,,,,images/08impossible.bmp,,,,,,,,,,,d,impossible,288,288,216,144,72,0,288,216,144,72,0,288,216,144,72,0,216,216,144,72,0,288,216,144,72,0,288,216,144,72,0,288,5d30eb1a18d10b001813369e,60463557820f8508fdb1e39c,2021-03-08_15h33.04.286,Impossible2021,2020.1.3,MacIntel,60,60462d2f8138f40887a79fc4,,,d,1,0.832125,0,79,79,56,1,3,,
,,,,,,,,,,,,,,,,,,,,,,images/44impossible.bmp,images/44impossible.bmp,,,,,,,,,,,,,,,images/44impossible.bmp,,,,,,,,,,,,,,d,impossible,216,216,144,72,0,288,216,144,72,0,288,216,144,72,0,288,144,144,72,0,288,216,144,72,0,288,216,144,72,0,288,216,5d30eb1a18d10b001813369e,60463557820f8508fdb1e39c,2021-03-08_15h33.04.286,Impossible2021,2020.1.3,MacIntel,60,60462d2f8138f40887a79fc4,,,d,1,0.81984,0,80,80,44,1,2,,
,,,,,,,,,,,,,,,,,,,,,,,,images/65possible.bmp,images/65possible.bmp,images/65possible.bmp,,,,,,,,,,,,,,,images/65possible.bmp,,,,,,,,,,,s,possible,144,144,72,0,288,216,144,72,0,288,216,144,72,0,288,216,144,144,72,0,288,216,144,72,0,288,216,144,72,0,288,216,5d30eb1a18d10b001813369e,60463557820f8508fdb1e39c,2021-03-08_15h33.04.286,Impossible2021,2020.1.3,MacIntel,60,60462d2f8138f40887a79fc4,,,s,1,0.96621,0,81,81,64,1,3,,
,,,,,,,,,,,,,,,,,,,,,images/05impossible.bmp,,,,,,,,,,,,,,,,images/05impossible.bmp,,,,,,,,,,,,,,,d,impossible,216,216,144,72,0,288,216,144,72,0,288,216,144,72,0,288,144,144,72,0,288,216,144,72,0,288,216,144,72,0,288,216,5d30eb1a18d10b001813369e,60463557820f8508fdb1e39c,2021-03-08_15h33.04.286,Impossible2021,2020.1.3,MacIntel,60,60462d2f8138f40887a79fc4,,,d,1,0.74634,0,82,82,7,1,1,,
,,,,,,,,,,,,,,,,,,,,,,,,,,,,,,,images/65possible.bmp,images/65possible.bmp,images/65possible.bmp,images/65possible.bmp,images/65possible.bmp,,,,,,,,,,,,,,,images/65possible.bmp,,s,possible,144,144,72,0,288,216,144,72,0,288,216,144,72,0,288,216,144,144,72,0,288,216,144,72,0,288,216,144,72,0,288,216,5d30eb1a18d10b001813369e,60463557820f8508fdb1e39c,2021-03-08_15h33.04.286,Impossible2021,2020.1.3,MacIntel,60,60462d2f8138f40887a79fc4,,,s,1,2.111375,0,83,83,112,1,5,,
,,,,,,,,,,,,,,,,,,,,,,images/25possible.bmp,images/25possible.bmp,,,,,,,,,,,,,,,,images/25possible.bmp,,,,,,,,,,,,,d,possible,72,72,0,288,216,144,72,0,288,216,144,72,0,288,216,144,0,0,288,216,144,72,0,288,216,144,72,0,288,216,144,72,5d30eb1a18d10b001813369e,60463557820f8508fdb1e39c,2021-03-08_15h33.04.286,Impossible2021,2020.1.3,MacIntel,60,60462d2f8138f40887a79fc4,,,d,1,1.140875,0,84,84,35,1,2,,
,,,,,,,,,,,,,,,,,,,,,,,,,,,images/03possible.bmp,images/03possible.bmp,images/03possible.bmp,images/03possible.bmp,,,,,,,,,,,,,,,,images/03possible.bmp,,,,,,d,possible,72,72,0,288,216,144,72,0,288,216,144,72,0,288,216,144,0,0,288,216,144,72,0,288,216,144,72,0,288,216,144,72,5d30eb1a18d10b001813369e,60463557820f8508fdb1e39c,2021-03-08_15h33.04.286,Impossible2021,2020.1.3,MacIntel,60,60462d2f8138f40887a79fc4,,,d,1,0.76188,0,85,85,78,1,4,,
,,,,,,,,,,,,,,,,,,,,,,,,,,,,,,,images/24impossible.bmp,images/24impossible.bmp,images/24impossible.bmp,images/24impossible.bmp,images/24impossible.bmp,,,,,,,,,,,,,,,,images/24impossible.bmp,d,impossible,0,0,288,216,144,72,0,288,216,144,72,0,288,216,144,72,288,288,216,144,72,0,288,216,144,72,0,288,216,144,72,0,5d30eb1a18d10b001813369e,60463557820f8508fdb1e39c,2021-03-08_15h33.04.286,Impossible2021,2020.1.3,MacIntel,60,60462d2f8138f40887a79fc4,,,d,1,1.696085,0,86,86,106,1,5,,
,,,,,,,,,,,,,,,,,,,,images/05impossible.bmp,,,,,,,,,,,,,,,,images/05impossible.bmp,,,,,,,,,,,,,,,,s,impossible,216,216,144,72,0,288,216,144,72,0,288,216,144,72,0,288,216,216,144,72,0,288,216,144,72,0,288,216,144,72,0,288,5d30eb1a18d10b001813369e,60463557820f8508fdb1e39c,2021-03-08_15h33.04.286,Impossible2021,2020.1.3,MacIntel,60,60462d2f8138f40887a79fc4,,,s,1,0.67304,0,87,87,1,1,1,,
,,,,,,,,,,,,,,,,,,,,,,,,,,,,,,,images/03impossible.bmp,images/03impossible.bmp,images/03impossible.bmp,images/03impossible.bmp,images/03impossible.bmp,,,,,,,,,,,,,images/03impossible.bmp,,,,s,impossible,72,72,0,288,216,144,72,0,288,216,144,72,0,288,216,144,72,72,0,288,216,144,72,0,288,216,144,72,0,288,216,144,5d30eb1a18d10b001813369e,60463557820f8508fdb1e39c,2021-03-08_15h33.04.286,Impossible2021,2020.1.3,MacIntel,60,60462d2f8138f40887a79fc4,,,d,0,1.635835,0,88,88,96,1,5,,
,,,,,,,,,,,,,,,,,,,,,,images/05possible.bmp,images/05possible.bmp,,,,,,,,,,,,,,,,images/05possible.bmp,,,,,,,,,,,,,s,possible,216,216,144,72,0,288,216,144,72,0,288,216,144,72,0,288,216,216,144,72,0,288,216,144,72,0,288,216,144,72,0,288,5d30eb1a18d10b001813369e,60463557820f8508fdb1e39c,2021-03-08_15h33.04.286,Impossible2021,2020.1.3,MacIntel,60,60462d2f8138f40887a79fc4,,,d,0,1.113245,0,89,89,25,1,2,,
,,,,,,,,,,,,,,,,,,,,,images/22impossible.bmp,,,,,,,,,,,,,,,,images/22impossible.bmp,,,,,,,,,,,,,,,s,impossible,216,216,144,72,0,288,216,144,72,0,288,216,144,72,0,288,216,216,144,72,0,288,216,144,72,0,288,216,144,72,0,288,5d30eb1a18d10b001813369e,60463557820f8508fdb1e39c,2021-03-08_15h33.04.286,Impossible2021,2020.1.3,MacIntel,60,60462d2f8138f40887a79fc4,,,s,1,0.85121,0,90,90,3,1,1,,
,,,,,,,,,,,,,,,,,,,,,,images/08possible.bmp,images/08possible.bmp,,,,,,,,,,,,,,,images/08possible.bmp,,,,,,,,,,,,,,d,possible,288,288,216,144,72,0,288,216,144,72,0,288,216,144,72,0,216,216,144,72,0,288,216,144,72,0,288,216,144,72,0,288,5d30eb1a18d10b001813369e,60463557820f8508fdb1e39c,2021-03-08_15h33.04.286,Impossible2021,2020.1.3,MacIntel,60,60462d2f8138f40887a79fc4,,,d,1,0.63446,0,91,91,32,1,2,,
,,,,,,,,,,,,,,,,,,,,,,images/55impossible.bmp,images/55impossible.bmp,,,,,,,,,,,,,,,,images/55impossible.bmp,,,,,,,,,,,,,s,impossible,72,72,0,288,216,144,72,0,288,216,144,72,0,288,216,144,72,72,0,288,216,144,72,0,288,216,144,72,0,288,216,144,5d30eb1a18d10b001813369e,60463557820f8508fdb1e39c,2021-03-08_15h33.04.286,Impossible2021,2020.1.3,MacIntel,60,60462d2f8138f40887a79fc4,,,s,1,0.74,0,92,92,39,1,2,,
,,,,,,,,,,,,,,,,,,,,,,,,,,,,,,,images/69possible.bmp,images/69possible.bmp,images/69possible.bmp,images/69possible.bmp,images/69possible.bmp,,,,,,,,,,,,,,images/69possible.bmp,,,s,possible,216,216,144,72,0,288,216,144,72,0,288,216,144,72,0,288,216,216,144,72,0,288,216,144,72,0,288,216,144,72,0,288,5d30eb1a18d10b001813369e,60463557820f8508fdb1e39c,2021-03-08_15h33.04.286,Impossible2021,2020.1.3,MacIntel,60,60462d2f8138f40887a79fc4,,,d,0,1.408745,0,93,93,113,1,5,,
,,,,,,,,,,,,,,,,,,,,,,images/22possible.bmp,images/22possible.bmp,,,,,,,,,,,,,,,,images/22possible.bmp,,,,,,,,,,,,,s,possible,216,216,144,72,0,288,216,144,72,0,288,216,144,72,0,288,216,216,144,72,0,288,216,144,72,0,288,216,144,72,0,288,5d30eb1a18d10b001813369e,60463557820f8508fdb1e39c,2021-03-08_15h33.04.286,Impossible2021,2020.1.3,MacIntel,60,60462d2f8138f40887a79fc4,,,s,1,0.8755,0,94,94,27,1,2,,
,,,,,,,,,,,,,,,,,,,,,,,,images/42possible.bmp,images/42possible.bmp,images/42possible.bmp,,,,,,,,,,,,,,,,images/42possible.bmp,,,,,,,,,,s,possible,144,144,72,0,288,216,144,72,0,288,216,144,72,0,288,216,144,144,72,0,288,216,144,72,0,288,216,144,72,0,288,216,5d30eb1a18d10b001813369e,60463557820f8508fdb1e39c,2021-03-08_15h33.04.286,Impossible2021,2020.1.3,MacIntel,60,60462d2f8138f40887a79fc4,,,s,1,1.225415,0,95,95,61,1,3,,
,,,,,,,,,,,,,,,,,,,,,,,,,,,,,,,images/42possible.bmp,images/42possible.bmp,images/42possible.bmp,images/42possible.bmp,images/42possible.bmp,,,,,,,,,,,,,images/42possible.bmp,,,,s,possible,144,144,72,0,288,216,144,72,0,288,216,144,72,0,288,216,144,144,72,0,288,216,144,72,0,288,216,144,72,0,288,216,5d30eb1a18d10b001813369e,60463557820f8508fdb1e39c,2021-03-08_15h33.04.286,Impossible2021,2020.1.3,MacIntel,60,60462d2f8138f40887a79fc4,,,s,1,0.96675,0,96,96,109,1,5,,
,,,,,,,,,,,,,,,,,,,,,,images/24possible.bmp,images/24possible.bmp,,,,,,,,,,,,,,,images/24possible.bmp,,,,,,,,,,,,,,d,possible,0,0,288,216,144,72,0,288,216,144,72,0,288,216,144,72,288,288,216,144,72,0,288,216,144,72,0,288,216,144,72,0,5d30eb1a18d10b001813369e,60463557820f8508fdb1e39c,2021-03-08_15h33.04.286,Impossible2021,2020.1.3,MacIntel,60,60462d2f8138f40887a79fc4,,,d,1,1.48017,0,97,97,34,1,2,,
,,,,,,,,,,,,,,,,,,,,,,images/65impossible.bmp,images/65impossible.bmp,,,,,,,,,,,,,,,images/65impossible.bmp,,,,,,,,,,,,,,d,impossible,144,144,72,0,288,216,144,72,0,288,216,144,72,0,288,216,72,72,0,288,216,144,72,0,288,216,144,72,0,288,216,144,5d30eb1a18d10b001813369e,60463557820f8508fdb1e39c,2021-03-08_15h33.04.286,Impossible2021,2020.1.3,MacIntel,60,60462d2f8138f40887a79fc4,,,d,1,0.910415,0,98,98,46,1,2,,
,,,,,,,,,,,,,,,,,,,,,,,,,,,,,,,images/22impossible.bmp,images/22impossible.bmp,images/22impossible.bmp,images/22impossible.bmp,images/22impossible.bmp,,,,,,,,,,,,,images/22impossible.bmp,,,,s,impossible,216,216,144,72,0,288,216,144,72,0,288,216,144,72,0,288,216,216,144,72,0,288,216,144,72,0,288,216,144,72,0,288,5d30eb1a18d10b001813369e,60463557820f8508fdb1e39c,2021-03-08_15h33.04.286,Impossible2021,2020.1.3,MacIntel,60,60462d2f8138f40887a79fc4,,,s,1,1.39112,0,99,99,99,1,5,,
,,,,,,,,,,,,,,,,,,,,,images/38possible.bmp,,,,,,,,,,,,,,,,images/38possible.bmp,,,,,,,,,,,,,,,d,possible,72,72,0,288,216,144,72,0,288,216,144,72,0,288,216,144,0,0,288,216,144,72,0,288,216,144,72,0,288,216,144,72,5d30eb1a18d10b001813369e,60463557820f8508fdb1e39c,2021-03-08_15h33.04.286,Impossible2021,2020.1.3,MacIntel,60,60462d2f8138f40887a79fc4,,,d,1,1.08296,0,100,100,18,1,1,,
,,,,,,,,,,,,,,,,,,,,,,,,,,,,,,,images/08impossible.bmp,images/08impossible.bmp,images/08impossible.bmp,images/08impossible.bmp,images/08impossible.bmp,,,,,,,,,,,,,,,,images/08impossible.bmp,s,impossible,288,288,216,144,72,0,288,216,144,72,0,288,216,144,72,0,288,288,216,144,72,0,288,216,144,72,0,288,216,144,72,0,5d30eb1a18d10b001813369e,60463557820f8508fdb1e39c,2021-03-08_15h33.04.286,Impossible2021,2020.1.3,MacIntel,60,60462d2f8138f40887a79fc4,,,d,0,1.11879,0,101,101,98,1,5,,
,,,,,,,,,,,,,,,,,,,,,,,,images/05impossible.bmp,images/05impossible.bmp,images/05impossible.bmp,,,,,,,,,,,,,,,,images/05impossible.bmp,,,,,,,,,,s,impossible,216,216,144,72,0,288,216,144,72,0,288,216,144,72,0,288,216,216,144,72,0,288,216,144,72,0,288,216,144,72,0,288,5d30eb1a18d10b001813369e,60463557820f8508fdb1e39c,2021-03-08_15h33.04.286,Impossible2021,2020.1.3,MacIntel,60,60462d2f8138f40887a79fc4,,,s,1,0.810415,0,102,102,49,1,3,,
,,,,,,,,,,,,,,,,,,,,,,,,,,,,,,,images/44possible.bmp,images/44possible.bmp,images/44possible.bmp,images/44possible.bmp,images/44possible.bmp,,,,,,,,,,,,,,images/44possible.bmp,,,s,possible,216,216,144,72,0,288,216,144,72,0,288,216,144,72,0,288,216,216,144,72,0,288,216,144,72,0,288,216,144,72,0,288,5d30eb1a18d10b001813369e,60463557820f8508fdb1e39c,2021-03-08_15h33.04.286,Impossible2021,2020.1.3,MacIntel,60,60462d2f8138f40887a79fc4,,,s,1,1.17913,0,103,103,110,1,5,,
,,,,,,,,,,,,,,,,,,,,,,,,,,,,,,,images/03impossible.bmp,images/03impossible.bmp,images/03impossible.bmp,images/03impossible.bmp,images/03impossible.bmp,,,,,,,,,,,,,,,,images/03impossible.bmp,d,impossible,72,72,0,288,216,144,72,0,288,216,144,72,0,288,216,144,0,0,288,216,144,72,0,288,216,144,72,0,288,216,144,72,5d30eb1a18d10b001813369e,60463557820f8508fdb1e39c,2021-03-08_15h33.04.286,Impossible2021,2020.1.3,MacIntel,60,60462d2f8138f40887a79fc4,,,d,1,0.986495,0,104,104,102,1,5,,
,,,,,,,,,,,,,,,,,,,,,images/44possible.bmp,,,,,,,,,,,,,,,,images/44possible.bmp,,,,,,,,,,,,,,,d,possible,216,216,144,72,0,288,216,144,72,0,288,216,144,72,0,288,144,144,72,0,288,216,144,72,0,288,216,144,72,0,288,216,5d30eb1a18d10b001813369e,60463557820f8508fdb1e39c,2021-03-08_15h33.04.286,Impossible2021,2020.1.3,MacIntel,60,60462d2f8138f40887a79fc4,,,d,1,0.723335,0,105,105,20,1,1,,
,,,,,,,,,,,,,,,,,,,,,,,,,,,,,,,images/08impossible.bmp,images/08impossible.bmp,images/08impossible.bmp,images/08impossible.bmp,images/08impossible.bmp,,,,,,,,,,,,,images/08impossible.bmp,,,,d,impossible,288,288,216,144,72,0,288,216,144,72,0,288,216,144,72,0,216,216,144,72,0,288,216,144,72,0,288,216,144,72,0,288,5d30eb1a18d10b001813369e,60463557820f8508fdb1e39c,2021-03-08_15h33.04.286,Impossible2021,2020.1.3,MacIntel,60,60462d2f8138f40887a79fc4,,,d,1,0.85779,0,106,106,104,1,5,,
,,,,,,,,,,,,,,,,,,,,,,images/38impossible.bmp,images/38impossible.bmp,,,,,,,,,,,,,,,images/38impossible.bmp,,,,,,,,,,,,,,s,impossible,72,72,0,288,216,144,72,0,288,216,144,72,0,288,216,144,72,72,0,288,216,144,72,0,288,216,144,72,0,288,216,144,5d30eb1a18d10b001813369e,60463557820f8508fdb1e39c,2021-03-08_15h33.04.286,Impossible2021,2020.1.3,MacIntel,60,60462d2f8138f40887a79fc4,,,s,1,1.241875,0,107,107,36,1,2,,
,,,,,,,,,,,,,,,,,,,,,,,,,,,images/25possible.bmp,images/25possible.bmp,images/25possible.bmp,images/25possible.bmp,,,,,,,,,,,,,,images/25possible.bmp,,,,,,,,d,possible,72,72,0,288,216,144,72,0,288,216,144,72,0,288,216,144,0,0,288,216,144,72,0,288,216,144,72,0,288,216,144,72,5d30eb1a18d10b001813369e,60463557820f8508fdb1e39c,2021-03-08_15h33.04.286,Impossible2021,2020.1.3,MacIntel,60,60462d2f8138f40887a79fc4,,,d,1,1.035295,0,108,108,83,1,4,,
,,,,,,,,,,,,,,,,,,,,images/08impossible.bmp,,,,,,,,,,,,,,,,images/08impossible.bmp,,,,,,,,,,,,,,,,d,impossible,288,288,216,144,72,0,288,216,144,72,0,288,216,144,72,0,216,216,144,72,0,288,216,144,72,0,288,216,144,72,0,288,5d30eb1a18d10b001813369e,60463557820f8508fdb1e39c,2021-03-08_15h33.04.286,Impossible2021,2020.1.3,MacIntel,60,60462d2f8138f40887a79fc4,,,d,1,0.664915,0,109,109,8,1,1,,
,,,,,,,,,,,,,,,,,,,,images/03impossible.bmp,,,,,,,,,,,,,,,,images/03impossible.bmp,,,,,,,,,,,,,,,,s,impossible,72,72,0,288,216,144,72,0,288,216,144,72,0,288,216,144,72,72,0,288,216,144,72,0,288,216,144,72,0,288,216,144,5d30eb1a18d10b001813369e,60463557820f8508fdb1e39c,2021-03-08_15h33.04.286,Impossible2021,2020.1.3,MacIntel,60,60462d2f8138f40887a79fc4,,,s,1,1.19525,0,110,110,0,1,1,,
,,,,,,,,,,,,,,,,,,,,,,images/44impossible.bmp,images/44impossible.bmp,,,,,,,,,,,,,,,images/44impossible.bmp,,,,,,,,,,,,,,s,impossible,216,216,144,72,0,288,216,144,72,0,288,216,144,72,0,288,216,216,144,72,0,288,216,144,72,0,288,216,144,72,0,288,5d30eb1a18d10b001813369e,60463557820f8508fdb1e39c,2021-03-08_15h33.04.286,Impossible2021,2020.1.3,MacIntel,60,60462d2f8138f40887a79fc4,,,s,1,1.073125,0,111,111,38,1,2,,
,,,,,,,,,,,,,,,,,,,,,,,,,,,images/03possible.bmp,images/03possible.bmp,images/03possible.bmp,images/03possible.bmp,,,,,,,,,,,,,,images/03possible.bmp,,,,,,,,s,possible,72,72,0,288,216,144,72,0,288,216,144,72,0,288,216,144,72,72,0,288,216,144,72,0,288,216,144,72,0,288,216,144,5d30eb1a18d10b001813369e,60463557820f8508fdb1e39c,2021-03-08_15h33.04.286,Impossible2021,2020.1.3,MacIntel,60,60462d2f8138f40887a79fc4,,,d,0,0.80904,0,112,112,72,1,4,,
,,,,,,,,,,,,,,,,,,,,,,,,images/24impossible.bmp,images/24impossible.bmp,images/24impossible.bmp,,,,,,,,,,,,,,,images/24impossible.bmp,,,,,,,,,,,s,impossible,0,0,288,216,144,72,0,288,216,144,72,0,288,216,144,72,0,0,288,216,144,72,0,288,216,144,72,0,288,216,144,72,5d30eb1a18d10b001813369e,60463557820f8508fdb1e39c,2021-03-08_15h33.04.286,Impossible2021,2020.1.3,MacIntel,60,60462d2f8138f40887a79fc4,,,s,1,0.87671,0,113,113,52,1,3,,
,,,,,,,,,,,,,,,,,,,,,,,,images/25impossible.bmp,images/25impossible.bmp,images/25impossible.bmp,,,,,,,,,,,,,,images/25impossible.bmp,,,,,,,,,,,,d,impossible,72,72,0,288,216,144,72,0,288,216,144,72,0,288,216,144,0,0,288,216,144,72,0,288,216,144,72,0,288,216,144,72,5d30eb1a18d10b001813369e,60463557820f8508fdb1e39c,2021-03-08_15h33.04.286,Impossible2021,2020.1.3,MacIntel,60,60462d2f8138f40887a79fc4,,,d,1,1.130665,0,114,114,59,1,3,,
,,,,,,,,,,,,,,,,,,,,,,,,,,,,,,,images/42possible.bmp,images/42possible.bmp,images/42possible.bmp,images/42possible.bmp,images/42possible.bmp,,,,,,,,,,,,,,,images/42possible.bmp,,d,possible,144,144,72,0,288,216,144,72,0,288,216,144,72,0,288,216,72,72,0,288,216,144,72,0,288,216,144,72,0,288,216,144,5d30eb1a18d10b001813369e,60463557820f8508fdb1e39c,2021-03-08_15h33.04.286,Impossible2021,2020.1.3,MacIntel,60,60462d2f8138f40887a79fc4,,,d,1,0.881585,0,115,115,115,1,5,,
,,,,,,,,,,,,,,,,,,,,,,,,,,,images/05possible.bmp,images/05possible.bmp,images/05possible.bmp,images/05possible.bmp,,,,,,,,,,,,,,,images/05possible.bmp,,,,,,,d,possible,216,216,144,72,0,288,216,144,72,0,288,216,144,72,0,288,144,144,72,0,288,216,144,72,0,288,216,144,72,0,288,216,5d30eb1a18d10b001813369e,60463557820f8508fdb1e39c,2021-03-08_15h33.04.286,Impossible2021,2020.1.3,MacIntel,60,60462d2f8138f40887a79fc4,,,d,1,1.073625,0,116,116,79,1,4,,
,,,,,,,,,,,,,,,,,,,,images/44possible.bmp,,,,,,,,,,,,,,,,images/44possible.bmp,,,,,,,,,,,,,,,,s,possible,216,216,144,72,0,288,216,144,72,0,288,216,144,72,0,288,216,216,144,72,0,288,216,144,72,0,288,216,144,72,0,288,5d30eb1a18d10b001813369e,60463557820f8508fdb1e39c,2021-03-08_15h33.04.286,Impossible2021,2020.1.3,MacIntel,60,60462d2f8138f40887a79fc4,,,s,1,0.6575,0,117,117,14,1,1,,
,,,,,,,,,,,,,,,,,,,,,,,,,,,,,,,images/65possible.bmp,images/65possible.bmp,images/65possible.bmp,images/65possible.bmp,images/65possible.bmp,,,,,,,,,,,,,images/65possible.bmp,,,,d,possible,144,144,72,0,288,216,144,72,0,288,216,144,72,0,288,216,72,72,0,288,216,144,72,0,288,216,144,72,0,288,216,144,5d30eb1a18d10b001813369e,60463557820f8508fdb1e39c,2021-03-08_15h33.04.286,Impossible2021,2020.1.3,MacIntel,60,60462d2f8138f40887a79fc4,,,d,1,0.811545,0,118,118,118,1,5,,
,,,,,,,,,,,,,,,,,,,,,,,,,,,images/38impossible.bmp,images/38impossible.bmp,images/38impossible.bmp,images/38impossible.bmp,,,,,,,,,,,,,images/38impossible.bmp,,,,,,,,,s,impossible,72,72,0,288,216,144,72,0,288,216,144,72,0,288,216,144,72,72,0,288,216,144,72,0,288,216,144,72,0,288,216,144,5d30eb1a18d10b001813369e,60463557820f8508fdb1e39c,2021-03-08_15h33.04.286,Impossible2021,2020.1.3,MacIntel,60,60462d2f8138f40887a79fc4,,,s,1,0.9445,0,119,119,84,1,4,,
,,,,,,,,,,,,,,,,,,,,,,,,,,,,,,,,,,,,,,,,,,,,,,,,,,,,,,,,,,,,,,,,,,,,,,,,,,,,,,,,,,,,,,5d30eb1a18d10b001813369e,60463557820f8508fdb1e39c,2021-03-08_15h33.04.286,Impossible2021,2020.1.3,MacIntel,60,60462d2f8138f40887a79fc4,,,,,,,,,,,,k,2.829005
