consent_key.keys,consent_key.rt,intro_key_2.keys,intro_key_2.rt,key_resp_4.keys,key_resp_4.rt,key_resp_5.keys,key_resp_5.rt,key_resp_6.keys,key_resp_6.rt,key_resp_7.keys,key_resp_7.rt,keyTraining.keys,keyTraining.corr,keyTraining.rt,practiceloop.thisRepN,practiceloop.thisTrialN,practiceloop.thisN,practiceloop.thisIndex,practiceloop.ran,s11,s1_1,s12,s22,s13,s23,s33,s14,s24,s34,s44,s15,s25,s35,s45,s55,t11,t1_1,t12,t22,t13,t23,t33,t14,t24,t34,t44,t15,t25,t35,t45,t55,corrans,study,o11,o1_1,o12,o22,o13,o23,o33,o14,o24,o34,o44,o15,o25,o35,o45,o55,ot11,ot1_1,ot12,ot22,ot13,ot23,ot33,ot14,ot24,ot34,ot44,ot15,ot25,ot35,ot45,ot55,participant,session,date,expName,psychopyVersion,OS,frameRate,STUDY_ID,preview,key_resp_2.keys,key_resp_2.rt,key_resp.keys,key_resp.corr,key_resp.rt,testloop.thisRepN,testloop.thisTrialN,testloop.thisN,testloop.thisIndex,testloop.ran,setsize,key_resp_3.keys,key_resp_3.rt
y,1.00013,space,16.2772,space,10.304595,s,5.716525,d,6.308405,space,8.122885,s,1,0.593525,0,0,0,0,1,images/06impossible.bmp,,,,,,,,,,,,,,,,images/06impossible.bmp,,,,,,,,,,,,,,,,s,,0,0,288,216,144,72,0,288,216,144,72,0,288,216,144,72,0,0,288,216,144,72,0,288,216,144,72,0,288,216,144,72,5eb9b9cfb3939c0dc7b8ee43,0ih4u4wlmebp,2021-03-08_08h59.14.448,Impossible2021,2020.1.3,Win32,60,60462d2f8138f40887a79fc4,1,,,,,,,,,,,,,
,,,,,,,,,,,,d,1,0.66321,0,1,1,1,1,,images/06impossible.bmp,,,,,,,,,,,,,,,,images/06impossible.bmp,,,,,,,,,,,,,,,d,,216,216,144,72,0,288,216,144,72,0,288,216,144,72,0,288,144,144,72,0,288,216,144,72,0,288,216,144,72,0,288,216,5eb9b9cfb3939c0dc7b8ee43,0ih4u4wlmebp,2021-03-08_08h59.14.448,Impossible2021,2020.1.3,Win32,60,60462d2f8138f40887a79fc4,1,,,,,,,,,,,,,
,,,,,,,,,,,,s,1,1.171415,0,2,2,2,1,,,images/06impossible.bmp,images/06impossible.bmp,,,,,,,,,,,,,,,,images/06impossible.bmp,,,,,,,,,,,,,s,,288,288,216,144,72,0,288,216,144,72,0,288,216,144,72,0,288,288,216,144,72,0,288,216,144,72,0,288,216,144,72,0,5eb9b9cfb3939c0dc7b8ee43,0ih4u4wlmebp,2021-03-08_08h59.14.448,Impossible2021,2020.1.3,Win32,60,60462d2f8138f40887a79fc4,1,,,,,,,,,,,,,
,,,,,,,,,,,,d,1,1.521905,0,3,3,3,1,,,images/06impossible.bmp,images/06impossible.bmp,,,,,,,,,,,,,,,images/06impossible.bmp,,,,,,,,,,,,,,d,,144,144,72,0,288,216,144,72,0,288,216,144,72,0,288,216,72,72,0,288,216,144,72,0,288,216,144,72,0,288,216,144,5eb9b9cfb3939c0dc7b8ee43,0ih4u4wlmebp,2021-03-08_08h59.14.448,Impossible2021,2020.1.3,Win32,60,60462d2f8138f40887a79fc4,1,,,,,,,,,,,,,
,,,,,,,,,,,,d,0,0.96739,0,4,4,4,1,,,,,images/06impossible.bmp,images/06impossible.bmp,images/06impossible.bmp,,,,,,,,,,,,,,images/06impossible.bmp,,,,,,,,,,,,s,,216,216,144,72,0,288,216,144,72,0,288,216,144,72,0,288,216,216,144,72,0,288,216,144,72,0,288,216,144,72,0,288,5eb9b9cfb3939c0dc7b8ee43,0ih4u4wlmebp,2021-03-08_08h59.14.448,Impossible2021,2020.1.3,Win32,60,60462d2f8138f40887a79fc4,1,,,,,,,,,,,,,
,,,,,,,,,,,,d,1,0.716945,0,5,5,5,1,,,,,images/06impossible.bmp,images/06impossible.bmp,images/06impossible.bmp,,,,,,,,,,,,,,,,images/06impossible.bmp,,,,,,,,,,d,,216,216,144,72,0,288,216,144,72,0,288,216,144,72,0,288,144,144,72,0,288,216,144,72,0,288,216,144,72,0,288,216,5eb9b9cfb3939c0dc7b8ee43,0ih4u4wlmebp,2021-03-08_08h59.14.448,Impossible2021,2020.1.3,Win32,60,60462d2f8138f40887a79fc4,1,,,,,,,,,,,,,
,,,,,,,,,,,,,,,,,,,,,,,,images/25impossible.bmp,images/25impossible.bmp,images/25impossible.bmp,,,,,,,,,,,,,,images/25impossible.bmp,,,,,,,,,,,,s,impossible,72,72,0,288,216,144,72,0,288,216,144,72,0,288,216,144,72,72,0,288,216,144,72,0,288,216,144,72,0,288,216,144,5eb9b9cfb3939c0dc7b8ee43,0ih4u4wlmebp,2021-03-08_08h59.14.448,Impossible2021,2020.1.3,Win32,60,60462d2f8138f40887a79fc4,1,space,0.691965,d,0,0.687135,0,0,0,53,1,3,,
,,,,,,,,,,,,,,,,,,,,,,images/65impossible.bmp,images/65impossible.bmp,,,,,,,,,,,,,,,images/65impossible.bmp,,,,,,,,,,,,,,d,impossible,144,144,72,0,288,216,144,72,0,288,216,144,72,0,288,216,72,72,0,288,216,144,72,0,288,216,144,72,0,288,216,144,5eb9b9cfb3939c0dc7b8ee43,0ih4u4wlmebp,2021-03-08_08h59.14.448,Impossible2021,2020.1.3,Win32,60,60462d2f8138f40887a79fc4,1,,,d,1,0.48221,0,1,1,46,1,2,,
,,,,,,,,,,,,,,,,,,,,,,,,,,,images/42impossible.bmp,images/42impossible.bmp,images/42impossible.bmp,images/42impossible.bmp,,,,,,,,,,,,,,,,images/42impossible.bmp,,,,,,s,impossible,144,144,72,0,288,216,144,72,0,288,216,144,72,0,288,216,144,144,72,0,288,216,144,72,0,288,216,144,72,0,288,216,5eb9b9cfb3939c0dc7b8ee43,0ih4u4wlmebp,2021-03-08_08h59.14.448,Impossible2021,2020.1.3,Win32,60,60462d2f8138f40887a79fc4,1,,,d,0,0.36432,0,2,2,85,1,4,,
,,,,,,,,,,,,,,,,,,,,,,,,images/55possible.bmp,images/55possible.bmp,images/55possible.bmp,,,,,,,,,,,,,,images/55possible.bmp,,,,,,,,,,,,s,possible,72,72,0,288,216,144,72,0,288,216,144,72,0,288,216,144,72,72,0,288,216,144,72,0,288,216,144,72,0,288,216,144,5eb9b9cfb3939c0dc7b8ee43,0ih4u4wlmebp,2021-03-08_08h59.14.448,Impossible2021,2020.1.3,Win32,60,60462d2f8138f40887a79fc4,1,,,d,0,0.65218,0,3,3,63,1,3,,
,,,,,,,,,,,,,,,,,,,,,images/65possible.bmp,,,,,,,,,,,,,,,,images/65possible.bmp,,,,,,,,,,,,,,,d,possible,144,144,72,0,288,216,144,72,0,288,216,144,72,0,288,216,72,72,0,288,216,144,72,0,288,216,144,72,0,288,216,144,5eb9b9cfb3939c0dc7b8ee43,0ih4u4wlmebp,2021-03-08_08h59.14.448,Impossible2021,2020.1.3,Win32,60,60462d2f8138f40887a79fc4,1,,,d,1,0.563275,0,4,4,22,1,1,,
,,,,,,,,,,,,,,,,,,,,,,,,,,,images/38impossible.bmp,images/38impossible.bmp,images/38impossible.bmp,images/38impossible.bmp,,,,,,,,,,,,,,,images/38impossible.bmp,,,,,,,d,impossible,72,72,0,288,216,144,72,0,288,216,144,72,0,288,216,144,0,0,288,216,144,72,0,288,216,144,72,0,288,216,144,72,5eb9b9cfb3939c0dc7b8ee43,0ih4u4wlmebp,2021-03-08_08h59.14.448,Impossible2021,2020.1.3,Win32,60,60462d2f8138f40887a79fc4,1,,,d,1,0.470045,0,5,5,90,1,4,,
,,,,,,,,,,,,,,,,,,,,,,images/22possible.bmp,images/22possible.bmp,,,,,,,,,,,,,,,,images/22possible.bmp,,,,,,,,,,,,,s,possible,216,216,144,72,0,288,216,144,72,0,288,216,144,72,0,288,216,216,144,72,0,288,216,144,72,0,288,216,144,72,0,288,5eb9b9cfb3939c0dc7b8ee43,0ih4u4wlmebp,2021-03-08_08h59.14.448,Impossible2021,2020.1.3,Win32,60,60462d2f8138f40887a79fc4,1,,,,0,,0,6,6,27,1,2,,
,,,,,,,,,,,,,,,,,,,,,,images/25possible.bmp,images/25possible.bmp,,,,,,,,,,,,,,,,images/25possible.bmp,,,,,,,,,,,,,d,possible,72,72,0,288,216,144,72,0,288,216,144,72,0,288,216,144,0,0,288,216,144,72,0,288,216,144,72,0,288,216,144,72,5eb9b9cfb3939c0dc7b8ee43,0ih4u4wlmebp,2021-03-08_08h59.14.448,Impossible2021,2020.1.3,Win32,60,60462d2f8138f40887a79fc4,1,,,s,0,1.517025,0,7,7,35,1,2,,
,,,,,,,,,,,,,,,,,,,,,,,,images/55possible.bmp,images/55possible.bmp,images/55possible.bmp,,,,,,,,,,,,,,,images/55possible.bmp,,,,,,,,,,,d,possible,72,72,0,288,216,144,72,0,288,216,144,72,0,288,216,144,0,0,288,216,144,72,0,288,216,144,72,0,288,216,144,72,5eb9b9cfb3939c0dc7b8ee43,0ih4u4wlmebp,2021-03-08_08h59.14.448,Impossible2021,2020.1.3,Win32,60,60462d2f8138f40887a79fc4,1,,,,0,,0,8,8,69,1,3,,
,,,,,,,,,,,,,,,,,,,,,,,,,,,images/38impossible.bmp,images/38impossible.bmp,images/38impossible.bmp,images/38impossible.bmp,,,,,,,,,,,,,images/38impossible.bmp,,,,,,,,,s,impossible,72,72,0,288,216,144,72,0,288,216,144,72,0,288,216,144,72,72,0,288,216,144,72,0,288,216,144,72,0,288,216,144,5eb9b9cfb3939c0dc7b8ee43,0ih4u4wlmebp,2021-03-08_08h59.14.448,Impossible2021,2020.1.3,Win32,60,60462d2f8138f40887a79fc4,1,,,,0,,0,9,9,84,1,4,,
,,,,,,,,,,,,,,,,,,,,,images/03impossible.bmp,,,,,,,,,,,,,,,,images/03impossible.bmp,,,,,,,,,,,,,,,d,impossible,72,72,0,288,216,144,72,0,288,216,144,72,0,288,216,144,0,0,288,216,144,72,0,288,216,144,72,0,288,216,144,72,5eb9b9cfb3939c0dc7b8ee43,0ih4u4wlmebp,2021-03-08_08h59.14.448,Impossible2021,2020.1.3,Win32,60,60462d2f8138f40887a79fc4,1,,,,0,,0,10,10,6,1,1,,
,,,,,,,,,,,,,,,,,,,,,,,,images/05impossible.bmp,images/05impossible.bmp,images/05impossible.bmp,,,,,,,,,,,,,,,,images/05impossible.bmp,,,,,,,,,,d,impossible,216,216,144,72,0,288,216,144,72,0,288,216,144,72,0,288,144,144,72,0,288,216,144,72,0,288,216,144,72,0,288,216,5eb9b9cfb3939c0dc7b8ee43,0ih4u4wlmebp,2021-03-08_08h59.14.448,Impossible2021,2020.1.3,Win32,60,60462d2f8138f40887a79fc4,1,,,,0,,0,11,11,55,1,3,,
,,,,,,,,,,,,,,,,,,,,,,,,,,,images/25possible.bmp,images/25possible.bmp,images/25possible.bmp,images/25possible.bmp,,,,,,,,,,,,,,,images/25possible.bmp,,,,,,,s,possible,72,72,0,288,216,144,72,0,288,216,144,72,0,288,216,144,72,72,0,288,216,144,72,0,288,216,144,72,0,288,216,144,5eb9b9cfb3939c0dc7b8ee43,0ih4u4wlmebp,2021-03-08_08h59.14.448,Impossible2021,2020.1.3,Win32,60,60462d2f8138f40887a79fc4,1,,,,0,,0,12,12,77,1,4,,
,,,,,,,,,,,,,,,,,,,,,,,,,,,images/42impossible.bmp,images/42impossible.bmp,images/42impossible.bmp,images/42impossible.bmp,,,,,,,,,,,,,,,,images/42impossible.bmp,,,,,,d,impossible,144,144,72,0,288,216,144,72,0,288,216,144,72,0,288,216,72,72,0,288,216,144,72,0,288,216,144,72,0,288,216,144,5eb9b9cfb3939c0dc7b8ee43,0ih4u4wlmebp,2021-03-08_08h59.14.448,Impossible2021,2020.1.3,Win32,60,60462d2f8138f40887a79fc4,1,,,,0,,0,13,13,91,1,4,,
,,,,,,,,,,,,,,,,,,,,,,images/08possible.bmp,images/08possible.bmp,,,,,,,,,,,,,,,images/08possible.bmp,,,,,,,,,,,,,,d,possible,288,288,216,144,72,0,288,216,144,72,0,288,216,144,72,0,216,216,144,72,0,288,216,144,72,0,288,216,144,72,0,288,5eb9b9cfb3939c0dc7b8ee43,0ih4u4wlmebp,2021-03-08_08h59.14.448,Impossible2021,2020.1.3,Win32,60,60462d2f8138f40887a79fc4,1,,,,0,,0,14,14,32,1,2,,
,,,,,,,,,,,,,,,,,,,,,,,,,,,,,,,images/42possible.bmp,images/42possible.bmp,images/42possible.bmp,images/42possible.bmp,images/42possible.bmp,,,,,,,,,,,,,images/42possible.bmp,,,,s,possible,144,144,72,0,288,216,144,72,0,288,216,144,72,0,288,216,144,144,72,0,288,216,144,72,0,288,216,144,72,0,288,216,5eb9b9cfb3939c0dc7b8ee43,0ih4u4wlmebp,2021-03-08_08h59.14.448,Impossible2021,2020.1.3,Win32,60,60462d2f8138f40887a79fc4,1,,,,0,,0,15,15,109,1,5,,
,,,,,,,,,,,,,,,,,,,,,,,,,,,,,,,images/25impossible.bmp,images/25impossible.bmp,images/25impossible.bmp,images/25impossible.bmp,images/25impossible.bmp,,,,,,,,,,,,,images/25impossible.bmp,,,,s,impossible,72,72,0,288,216,144,72,0,288,216,144,72,0,288,216,144,72,72,0,288,216,144,72,0,288,216,144,72,0,288,216,144,5eb9b9cfb3939c0dc7b8ee43,0ih4u4wlmebp,2021-03-08_08h59.14.448,Impossible2021,2020.1.3,Win32,60,60462d2f8138f40887a79fc4,1,,,,0,,0,16,16,101,1,5,,
,,,,,,,,,,,,,,,,,,,,,,,,,,,,,,,images/42possible.bmp,images/42possible.bmp,images/42possible.bmp,images/42possible.bmp,images/42possible.bmp,,,,,,,,,,,,,,,images/42possible.bmp,,d,possible,144,144,72,0,288,216,144,72,0,288,216,144,72,0,288,216,72,72,0,288,216,144,72,0,288,216,144,72,0,288,216,144,5eb9b9cfb3939c0dc7b8ee43,0ih4u4wlmebp,2021-03-08_08h59.14.448,Impossible2021,2020.1.3,Win32,60,60462d2f8138f40887a79fc4,1,,,,0,,0,17,17,115,1,5,,
,,,,,,,,,,,,,,,,,,,,,,images/44impossible.bmp,images/44impossible.bmp,,,,,,,,,,,,,,,images/44impossible.bmp,,,,,,,,,,,,,,d,impossible,216,216,144,72,0,288,216,144,72,0,288,216,144,72,0,288,144,144,72,0,288,216,144,72,0,288,216,144,72,0,288,216,5eb9b9cfb3939c0dc7b8ee43,0ih4u4wlmebp,2021-03-08_08h59.14.448,Impossible2021,2020.1.3,Win32,60,60462d2f8138f40887a79fc4,1,,,,0,,0,18,18,44,1,2,,
,,,,,,,,,,,,,,,,,,,,,,,,,,,,,,,images/69possible.bmp,images/69possible.bmp,images/69possible.bmp,images/69possible.bmp,images/69possible.bmp,,,,,,,,,,,,,,images/69possible.bmp,,,d,possible,216,216,144,72,0,288,216,144,72,0,288,216,144,72,0,288,144,144,72,0,288,216,144,72,0,288,216,144,72,0,288,216,5eb9b9cfb3939c0dc7b8ee43,0ih4u4wlmebp,2021-03-08_08h59.14.448,Impossible2021,2020.1.3,Win32,60,60462d2f8138f40887a79fc4,1,,,,0,,0,19,19,119,1,5,,
,,,,,,,,,,,,,,,,,,,,,,images/24possible.bmp,images/24possible.bmp,,,,,,,,,,,,,,,images/24possible.bmp,,,,,,,,,,,,,,s,possible,0,0,288,216,144,72,0,288,216,144,72,0,288,216,144,72,0,0,288,216,144,72,0,288,216,144,72,0,288,216,144,72,5eb9b9cfb3939c0dc7b8ee43,0ih4u4wlmebp,2021-03-08_08h59.14.448,Impossible2021,2020.1.3,Win32,60,60462d2f8138f40887a79fc4,1,,,,0,,0,20,20,28,1,2,,
,,,,,,,,,,,,,,,,,,,,,,,,images/05impossible.bmp,images/05impossible.bmp,images/05impossible.bmp,,,,,,,,,,,,,,,,images/05impossible.bmp,,,,,,,,,,s,impossible,216,216,144,72,0,288,216,144,72,0,288,216,144,72,0,288,216,216,144,72,0,288,216,144,72,0,288,216,144,72,0,288,5eb9b9cfb3939c0dc7b8ee43,0ih4u4wlmebp,2021-03-08_08h59.14.448,Impossible2021,2020.1.3,Win32,60,60462d2f8138f40887a79fc4,1,,,,0,,0,21,21,49,1,3,,
,,,,,,,,,,,,,,,,,,,,,,,,,,,images/05possible.bmp,images/05possible.bmp,images/05possible.bmp,images/05possible.bmp,,,,,,,,,,,,,,,,images/05possible.bmp,,,,,,s,possible,216,216,144,72,0,288,216,144,72,0,288,216,144,72,0,288,216,216,144,72,0,288,216,144,72,0,288,216,144,72,0,288,5eb9b9cfb3939c0dc7b8ee43,0ih4u4wlmebp,2021-03-08_08h59.14.448,Impossible2021,2020.1.3,Win32,60,60462d2f8138f40887a79fc4,1,,,,0,,0,22,22,73,1,4,,
,,,,,,,,,,,,,,,,,,,,,,,,images/69possible.bmp,images/69possible.bmp,images/69possible.bmp,,,,,,,,,,,,,,,,images/69possible.bmp,,,,,,,,,,s,possible,216,216,144,72,0,288,216,144,72,0,288,216,144,72,0,288,216,216,144,72,0,288,216,144,72,0,288,216,144,72,0,288,5eb9b9cfb3939c0dc7b8ee43,0ih4u4wlmebp,2021-03-08_08h59.14.448,Impossible2021,2020.1.3,Win32,60,60462d2f8138f40887a79fc4,1,,,,0,,0,23,23,65,1,3,,
,,,,,,,,,,,,,,,,,,,,,,,,,,,images/65impossible.bmp,images/65impossible.bmp,images/65impossible.bmp,images/65impossible.bmp,,,,,,,,,,,,,,,images/65impossible.bmp,,,,,,,d,impossible,144,144,72,0,288,216,144,72,0,288,216,144,72,0,288,216,72,72,0,288,216,144,72,0,288,216,144,72,0,288,216,144,5eb9b9cfb3939c0dc7b8ee43,0ih4u4wlmebp,2021-03-08_08h59.14.448,Impossible2021,2020.1.3,Win32,60,60462d2f8138f40887a79fc4,1,,,,0,,0,24,24,94,1,4,,
,,,,,,,,,,,,,,,,,,,,,,,,,,,images/44impossible.bmp,images/44impossible.bmp,images/44impossible.bmp,images/44impossible.bmp,,,,,,,,,,,,,,,images/44impossible.bmp,,,,,,,s,impossible,216,216,144,72,0,288,216,144,72,0,288,216,144,72,0,288,216,216,144,72,0,288,216,144,72,0,288,216,144,72,0,288,5eb9b9cfb3939c0dc7b8ee43,0ih4u4wlmebp,2021-03-08_08h59.14.448,Impossible2021,2020.1.3,Win32,60,60462d2f8138f40887a79fc4,1,,,,0,,0,25,25,86,1,4,,
,,,,,,,,,,,,,,,,,,,,,,images/22possible.bmp,images/22possible.bmp,,,,,,,,,,,,,,,,images/22possible.bmp,,,,,,,,,,,,,d,possible,216,216,144,72,0,288,216,144,72,0,288,216,144,72,0,288,144,144,72,0,288,216,144,72,0,288,216,144,72,0,288,216,5eb9b9cfb3939c0dc7b8ee43,0ih4u4wlmebp,2021-03-08_08h59.14.448,Impossible2021,2020.1.3,Win32,60,60462d2f8138f40887a79fc4,1,,,,0,,0,26,26,33,1,2,,
,,,,,,,,,,,,,,,,,,,,,,,,images/38possible.bmp,images/38possible.bmp,images/38possible.bmp,,,,,,,,,,,,,,,images/38possible.bmp,,,,,,,,,,,s,possible,72,72,0,288,216,144,72,0,288,216,144,72,0,288,216,144,72,72,0,288,216,144,72,0,288,216,144,72,0,288,216,144,5eb9b9cfb3939c0dc7b8ee43,0ih4u4wlmebp,2021-03-08_08h59.14.448,Impossible2021,2020.1.3,Win32,60,60462d2f8138f40887a79fc4,1,,,,0,,0,27,27,60,1,3,,
,,,,,,,,,,,,,,,,,,,,,,,,,,,images/24possible.bmp,images/24possible.bmp,images/24possible.bmp,images/24possible.bmp,,,,,,,,,,,,,images/24possible.bmp,,,,,,,,,s,possible,0,0,288,216,144,72,0,288,216,144,72,0,288,216,144,72,0,0,288,216,144,72,0,288,216,144,72,0,288,216,144,72,5eb9b9cfb3939c0dc7b8ee43,0ih4u4wlmebp,2021-03-08_08h59.14.448,Impossible2021,2020.1.3,Win32,60,60462d2f8138f40887a79fc4,1,,,,0,,0,28,28,76,1,4,,
,,,,,,,,,,,,,,,,,,,,,images/42possible.bmp,,,,,,,,,,,,,,,,images/42possible.bmp,,,,,,,,,,,,,,,s,possible,144,144,72,0,288,216,144,72,0,288,216,144,72,0,288,216,144,144,72,0,288,216,144,72,0,288,216,144,72,0,288,216,5eb9b9cfb3939c0dc7b8ee43,0ih4u4wlmebp,2021-03-08_08h59.14.448,Impossible2021,2020.1.3,Win32,60,60462d2f8138f40887a79fc4,1,,,,0,,0,29,29,13,1,1,,
,,,,,,,,,,,,,,,,,,,,,,images/05possible.bmp,images/05possible.bmp,,,,,,,,,,,,,,,,images/05possible.bmp,,,,,,,,,,,,,d,possible,216,216,144,72,0,288,216,144,72,0,288,216,144,72,0,288,144,144,72,0,288,216,144,72,0,288,216,144,72,0,288,216,5eb9b9cfb3939c0dc7b8ee43,0ih4u4wlmebp,2021-03-08_08h59.14.448,Impossible2021,2020.1.3,Win32,60,60462d2f8138f40887a79fc4,1,,,,0,,0,30,30,31,1,2,,
,,,,,,,,,,,,,,,,,,,,images/05impossible.bmp,,,,,,,,,,,,,,,,images/05impossible.bmp,,,,,,,,,,,,,,,,s,impossible,216,216,144,72,0,288,216,144,72,0,288,216,144,72,0,288,216,216,144,72,0,288,216,144,72,0,288,216,144,72,0,288,5eb9b9cfb3939c0dc7b8ee43,0ih4u4wlmebp,2021-03-08_08h59.14.448,Impossible2021,2020.1.3,Win32,60,60462d2f8138f40887a79fc4,1,,,,0,,0,31,31,1,1,1,,
,,,,,,,,,,,,,,,,,,,,,,,,,,,,,,,images/44possible.bmp,images/44possible.bmp,images/44possible.bmp,images/44possible.bmp,images/44possible.bmp,,,,,,,,,,,,,,images/44possible.bmp,,,s,possible,216,216,144,72,0,288,216,144,72,0,288,216,144,72,0,288,216,216,144,72,0,288,216,144,72,0,288,216,144,72,0,288,5eb9b9cfb3939c0dc7b8ee43,0ih4u4wlmebp,2021-03-08_08h59.14.448,Impossible2021,2020.1.3,Win32,60,60462d2f8138f40887a79fc4,1,,,,0,,0,32,32,110,1,5,,
,,,,,,,,,,,,,,,,,,,,,images/69possible.bmp,,,,,,,,,,,,,,,,images/69possible.bmp,,,,,,,,,,,,,,,s,possible,216,216,144,72,0,288,216,144,72,0,288,216,144,72,0,288,216,216,144,72,0,288,216,144,72,0,288,216,144,72,0,288,5eb9b9cfb3939c0dc7b8ee43,0ih4u4wlmebp,2021-03-08_08h59.14.448,Impossible2021,2020.1.3,Win32,60,60462d2f8138f40887a79fc4,1,,,,0,,0,33,33,17,1,1,,
,,,,,,,,,,,,,,,,,,,,,,images/03possible.bmp,images/03possible.bmp,,,,,,,,,,,,,,,images/03possible.bmp,,,,,,,,,,,,,,s,possible,72,72,0,288,216,144,72,0,288,216,144,72,0,288,216,144,72,72,0,288,216,144,72,0,288,216,144,72,0,288,216,144,5eb9b9cfb3939c0dc7b8ee43,0ih4u4wlmebp,2021-03-08_08h59.14.448,Impossible2021,2020.1.3,Win32,60,60462d2f8138f40887a79fc4,1,,,,0,,0,34,34,24,1,2,,
,,,,,,,,,,,,,,,,,,,,,,,,images/65possible.bmp,images/65possible.bmp,images/65possible.bmp,,,,,,,,,,,,,,images/65possible.bmp,,,,,,,,,,,,d,possible,144,144,72,0,288,216,144,72,0,288,216,144,72,0,288,216,72,72,0,288,216,144,72,0,288,216,144,72,0,288,216,144,5eb9b9cfb3939c0dc7b8ee43,0ih4u4wlmebp,2021-03-08_08h59.14.448,Impossible2021,2020.1.3,Win32,60,60462d2f8138f40887a79fc4,1,,,,0,,0,35,35,70,1,3,,
,,,,,,,,,,,,,,,,,,,,,,,,images/44possible.bmp,images/44possible.bmp,images/44possible.bmp,,,,,,,,,,,,,,,,images/44possible.bmp,,,,,,,,,,s,possible,216,216,144,72,0,288,216,144,72,0,288,216,144,72,0,288,216,216,144,72,0,288,216,144,72,0,288,216,144,72,0,288,5eb9b9cfb3939c0dc7b8ee43,0ih4u4wlmebp,2021-03-08_08h59.14.448,Impossible2021,2020.1.3,Win32,60,60462d2f8138f40887a79fc4,1,,,,0,,0,36,36,62,1,3,,
,,,,,,,,,,,,,,,,,,,,images/08impossible.bmp,,,,,,,,,,,,,,,,images/08impossible.bmp,,,,,,,,,,,,,,,,d,impossible,288,288,216,144,72,0,288,216,144,72,0,288,216,144,72,0,216,216,144,72,0,288,216,144,72,0,288,216,144,72,0,288,5eb9b9cfb3939c0dc7b8ee43,0ih4u4wlmebp,2021-03-08_08h59.14.448,Impossible2021,2020.1.3,Win32,60,60462d2f8138f40887a79fc4,1,,,,0,,0,37,37,8,1,1,,
,,,,,,,,,,,,,,,,,,,,,,,,,,,,,,,images/55possible.bmp,images/55possible.bmp,images/55possible.bmp,images/55possible.bmp,images/55possible.bmp,,,,,,,,,,,,,,,,images/55possible.bmp,s,possible,72,72,0,288,216,144,72,0,288,216,144,72,0,288,216,144,72,72,0,288,216,144,72,0,288,216,144,72,0,288,216,144,5eb9b9cfb3939c0dc7b8ee43,0ih4u4wlmebp,2021-03-08_08h59.14.448,Impossible2021,2020.1.3,Win32,60,60462d2f8138f40887a79fc4,1,,,,0,,0,38,38,111,1,5,,
,,,,,,,,,,,,,,,,,,,,,,,,,,,images/22possible.bmp,images/22possible.bmp,images/22possible.bmp,images/22possible.bmp,,,,,,,,,,,,,,images/22possible.bmp,,,,,,,,s,possible,216,216,144,72,0,288,216,144,72,0,288,216,144,72,0,288,216,216,144,72,0,288,216,144,72,0,288,216,144,72,0,288,5eb9b9cfb3939c0dc7b8ee43,0ih4u4wlmebp,2021-03-08_08h59.14.448,Impossible2021,2020.1.3,Win32,60,60462d2f8138f40887a79fc4,1,,,,0,,0,39,39,75,1,4,,
,,,,,,,,,,,,,,,,,,,,,,images/05possible.bmp,images/05possible.bmp,,,,,,,,,,,,,,,,images/05possible.bmp,,,,,,,,,,,,,s,possible,216,216,144,72,0,288,216,144,72,0,288,216,144,72,0,288,216,216,144,72,0,288,216,144,72,0,288,216,144,72,0,288,5eb9b9cfb3939c0dc7b8ee43,0ih4u4wlmebp,2021-03-08_08h59.14.448,Impossible2021,2020.1.3,Win32,60,60462d2f8138f40887a79fc4,1,,,,0,,0,40,40,25,1,2,,
,,,,,,,,,,,,,,,,,,,,,images/55possible.bmp,,,,,,,,,,,,,,,,images/55possible.bmp,,,,,,,,,,,,,,,s,possible,72,72,0,288,216,144,72,0,288,216,144,72,0,288,216,144,72,72,0,288,216,144,72,0,288,216,144,72,0,288,216,144,5eb9b9cfb3939c0dc7b8ee43,0ih4u4wlmebp,2021-03-08_08h59.14.448,Impossible2021,2020.1.3,Win32,60,60462d2f8138f40887a79fc4,1,,,,0,,0,41,41,15,1,1,,
,,,,,,,,,,,,,,,,,,,,,,,,,,,images/69impossible.bmp,images/69impossible.bmp,images/69impossible.bmp,images/69impossible.bmp,,,,,,,,,,,,,,images/69impossible.bmp,,,,,,,,d,impossible,216,216,144,72,0,288,216,144,72,0,288,216,144,72,0,288,144,144,72,0,288,216,144,72,0,288,216,144,72,0,288,216,5eb9b9cfb3939c0dc7b8ee43,0ih4u4wlmebp,2021-03-08_08h59.14.448,Impossible2021,2020.1.3,Win32,60,60462d2f8138f40887a79fc4,1,,,,0,,0,42,42,95,1,4,,
,,,,,,,,,,,,,,,,,,,,,,,,images/44possible.bmp,images/44possible.bmp,images/44possible.bmp,,,,,,,,,,,,,,images/44possible.bmp,,,,,,,,,,,,d,possible,216,216,144,72,0,288,216,144,72,0,288,216,144,72,0,288,144,144,72,0,288,216,144,72,0,288,216,144,72,0,288,216,5eb9b9cfb3939c0dc7b8ee43,0ih4u4wlmebp,2021-03-08_08h59.14.448,Impossible2021,2020.1.3,Win32,60,60462d2f8138f40887a79fc4,1,,,,0,,0,43,43,68,1,3,,
,,,,,,,,,,,,,,,,,,,,,images/05impossible.bmp,,,,,,,,,,,,,,,,images/05impossible.bmp,,,,,,,,,,,,,,,d,impossible,216,216,144,72,0,288,216,144,72,0,288,216,144,72,0,288,144,144,72,0,288,216,144,72,0,288,216,144,72,0,288,216,5eb9b9cfb3939c0dc7b8ee43,0ih4u4wlmebp,2021-03-08_08h59.14.448,Impossible2021,2020.1.3,Win32,60,60462d2f8138f40887a79fc4,1,,,,0,,0,44,44,7,1,1,,
,,,,,,,,,,,,,,,,,,,,,,images/08possible.bmp,images/08possible.bmp,,,,,,,,,,,,,,,images/08possible.bmp,,,,,,,,,,,,,,s,possible,288,288,216,144,72,0,288,216,144,72,0,288,216,144,72,0,288,288,216,144,72,0,288,216,144,72,0,288,216,144,72,0,5eb9b9cfb3939c0dc7b8ee43,0ih4u4wlmebp,2021-03-08_08h59.14.448,Impossible2021,2020.1.3,Win32,60,60462d2f8138f40887a79fc4,1,,,,0,,0,45,45,26,1,2,,
,,,,,,,,,,,,,,,,,,,,,,,,,,,images/08possible.bmp,images/08possible.bmp,images/08possible.bmp,images/08possible.bmp,,,,,,,,,,,,,images/08possible.bmp,,,,,,,,,d,possible,288,288,216,144,72,0,288,216,144,72,0,288,216,144,72,0,216,216,144,72,0,288,216,144,72,0,288,216,144,72,0,288,5eb9b9cfb3939c0dc7b8ee43,0ih4u4wlmebp,2021-03-08_08h59.14.448,Impossible2021,2020.1.3,Win32,60,60462d2f8138f40887a79fc4,1,,,,0,,0,46,46,80,1,4,,
,,,,,,,,,,,,,,,,,,,,,,,,,,,,,,,images/69possible.bmp,images/69possible.bmp,images/69possible.bmp,images/69possible.bmp,images/69possible.bmp,,,,,,,,,,,,,,images/69possible.bmp,,,s,possible,216,216,144,72,0,288,216,144,72,0,288,216,144,72,0,288,216,216,144,72,0,288,216,144,72,0,288,216,144,72,0,288,5eb9b9cfb3939c0dc7b8ee43,0ih4u4wlmebp,2021-03-08_08h59.14.448,Impossible2021,2020.1.3,Win32,60,60462d2f8138f40887a79fc4,1,,,,0,,0,47,47,113,1,5,,
,,,,,,,,,,,,,,,,,,,,,,,,,,,images/08possible.bmp,images/08possible.bmp,images/08possible.bmp,images/08possible.bmp,,,,,,,,,,,,,,,images/08possible.bmp,,,,,,,s,possible,288,288,216,144,72,0,288,216,144,72,0,288,216,144,72,0,288,288,216,144,72,0,288,216,144,72,0,288,216,144,72,0,5eb9b9cfb3939c0dc7b8ee43,0ih4u4wlmebp,2021-03-08_08h59.14.448,Impossible2021,2020.1.3,Win32,60,60462d2f8138f40887a79fc4,1,,,,0,,0,48,48,74,1,4,,
,,,,,,,,,,,,,,,,,,,,,,,,images/03impossible.bmp,images/03impossible.bmp,images/03impossible.bmp,,,,,,,,,,,,,,,images/03impossible.bmp,,,,,,,,,,,s,impossible,72,72,0,288,216,144,72,0,288,216,144,72,0,288,216,144,72,72,0,288,216,144,72,0,288,216,144,72,0,288,216,144,5eb9b9cfb3939c0dc7b8ee43,0ih4u4wlmebp,2021-03-08_08h59.14.448,Impossible2021,2020.1.3,Win32,60,60462d2f8138f40887a79fc4,1,,,,0,,0,49,49,48,1,3,,
,,,,,,,,,,,,,,,,,,,,,,,,,,,,,,,images/24impossible.bmp,images/24impossible.bmp,images/24impossible.bmp,images/24impossible.bmp,images/24impossible.bmp,,,,,,,,,,,,images/24impossible.bmp,,,,,s,impossible,0,0,288,216,144,72,0,288,216,144,72,0,288,216,144,72,0,0,288,216,144,72,0,288,216,144,72,0,288,216,144,72,5eb9b9cfb3939c0dc7b8ee43,0ih4u4wlmebp,2021-03-08_08h59.14.448,Impossible2021,2020.1.3,Win32,60,60462d2f8138f40887a79fc4,1,,,,0,,0,50,50,100,1,5,,
,,,,,,,,,,,,,,,,,,,,,,images/69impossible.bmp,images/69impossible.bmp,,,,,,,,,,,,,,,,images/69impossible.bmp,,,,,,,,,,,,,s,impossible,216,216,144,72,0,288,216,144,72,0,288,216,144,72,0,288,216,216,144,72,0,288,216,144,72,0,288,216,144,72,0,288,5eb9b9cfb3939c0dc7b8ee43,0ih4u4wlmebp,2021-03-08_08h59.14.448,Impossible2021,2020.1.3,Win32,60,60462d2f8138f40887a79fc4,1,,,,0,,0,51,51,41,1,2,,
,,,,,,,,,,,,,,,,,,,,,,,,images/08impossible.bmp,images/08impossible.bmp,images/08impossible.bmp,,,,,,,,,,,,,,,images/08impossible.bmp,,,,,,,,,,,s,impossible,288,288,216,144,72,0,288,216,144,72,0,288,216,144,72,0,288,288,216,144,72,0,288,216,144,72,0,288,216,144,72,0,5eb9b9cfb3939c0dc7b8ee43,0ih4u4wlmebp,2021-03-08_08h59.14.448,Impossible2021,2020.1.3,Win32,60,60462d2f8138f40887a79fc4,1,,,,0,,0,52,52,50,1,3,,
,,,,,,,,,,,,,,,,,,,,,images/22impossible.bmp,,,,,,,,,,,,,,,,images/22impossible.bmp,,,,,,,,,,,,,,,s,impossible,216,216,144,72,0,288,216,144,72,0,288,216,144,72,0,288,216,216,144,72,0,288,216,144,72,0,288,216,144,72,0,288,5eb9b9cfb3939c0dc7b8ee43,0ih4u4wlmebp,2021-03-08_08h59.14.448,Impossible2021,2020.1.3,Win32,60,60462d2f8138f40887a79fc4,1,,,,0,,0,53,53,3,1,1,,
,,,,,,,,,,,,,,,,,,,,images/44possible.bmp,,,,,,,,,,,,,,,,images/44possible.bmp,,,,,,,,,,,,,,,,s,possible,216,216,144,72,0,288,216,144,72,0,288,216,144,72,0,288,216,216,144,72,0,288,216,144,72,0,288,216,144,72,0,288,5eb9b9cfb3939c0dc7b8ee43,0ih4u4wlmebp,2021-03-08_08h59.14.448,Impossible2021,2020.1.3,Win32,60,60462d2f8138f40887a79fc4,1,,,,0,,0,54,54,14,1,1,,
,,,,,,,,,,,,,,,,,,,,images/55possible.bmp,,,,,,,,,,,,,,,,images/55possible.bmp,,,,,,,,,,,,,,,,d,possible,72,72,0,288,216,144,72,0,288,216,144,72,0,288,216,144,0,0,288,216,144,72,0,288,216,144,72,0,288,216,144,72,5eb9b9cfb3939c0dc7b8ee43,0ih4u4wlmebp,2021-03-08_08h59.14.448,Impossible2021,2020.1.3,Win32,60,60462d2f8138f40887a79fc4,1,,,,0,,0,55,55,21,1,1,,
,,,,,,,,,,,,,,,,,,,,,,,,images/24impossible.bmp,images/24impossible.bmp,images/24impossible.bmp,,,,,,,,,,,,,,,images/24impossible.bmp,,,,,,,,,,,s,impossible,0,0,288,216,144,72,0,288,216,144,72,0,288,216,144,72,0,0,288,216,144,72,0,288,216,144,72,0,288,216,144,72,5eb9b9cfb3939c0dc7b8ee43,0ih4u4wlmebp,2021-03-08_08h59.14.448,Impossible2021,2020.1.3,Win32,60,60462d2f8138f40887a79fc4,1,,,,0,,0,56,56,52,1,3,,
,,,,,,,,,,,,,,,,,,,,,,images/25possible.bmp,images/25possible.bmp,,,,,,,,,,,,,,,,images/25possible.bmp,,,,,,,,,,,,,s,possible,72,72,0,288,216,144,72,0,288,216,144,72,0,288,216,144,72,72,0,288,216,144,72,0,288,216,144,72,0,288,216,144,5eb9b9cfb3939c0dc7b8ee43,0ih4u4wlmebp,2021-03-08_08h59.14.448,Impossible2021,2020.1.3,Win32,60,60462d2f8138f40887a79fc4,1,,,,0,,0,57,57,29,1,2,,
,,,,,,,,,,,,,,,,,,,,,,images/38impossible.bmp,images/38impossible.bmp,,,,,,,,,,,,,,,images/38impossible.bmp,,,,,,,,,,,,,,d,impossible,72,72,0,288,216,144,72,0,288,216,144,72,0,288,216,144,0,0,288,216,144,72,0,288,216,144,72,0,288,216,144,72,5eb9b9cfb3939c0dc7b8ee43,0ih4u4wlmebp,2021-03-08_08h59.14.448,Impossible2021,2020.1.3,Win32,60,60462d2f8138f40887a79fc4,1,,,,0,,0,58,58,42,1,2,,
,,,,,,,,,,,,,,,,,,,,,,,,images/24impossible.bmp,images/24impossible.bmp,images/24impossible.bmp,,,,,,,,,,,,,,,images/24impossible.bmp,,,,,,,,,,,d,impossible,0,0,288,216,144,72,0,288,216,144,72,0,288,216,144,72,288,288,216,144,72,0,288,216,144,72,0,288,216,144,72,0,5eb9b9cfb3939c0dc7b8ee43,0ih4u4wlmebp,2021-03-08_08h59.14.448,Impossible2021,2020.1.3,Win32,60,60462d2f8138f40887a79fc4,1,,,,0,,0,59,59,58,1,3,,
,,,,,,,,,,,,,,,,,,,,,,images/03possible.bmp,images/03possible.bmp,,,,,,,,,,,,,,,images/03possible.bmp,,,,,,,,,,,,,,d,possible,72,72,0,288,216,144,72,0,288,216,144,72,0,288,216,144,0,0,288,216,144,72,0,288,216,144,72,0,288,216,144,72,5eb9b9cfb3939c0dc7b8ee43,0ih4u4wlmebp,2021-03-08_08h59.14.448,Impossible2021,2020.1.3,Win32,60,60462d2f8138f40887a79fc4,1,,,,0,,0,60,60,30,1,2,,
,,,,,,,,,,,,,,,,,,,,images/03impossible.bmp,,,,,,,,,,,,,,,,images/03impossible.bmp,,,,,,,,,,,,,,,,s,impossible,72,72,0,288,216,144,72,0,288,216,144,72,0,288,216,144,72,72,0,288,216,144,72,0,288,216,144,72,0,288,216,144,5eb9b9cfb3939c0dc7b8ee43,0ih4u4wlmebp,2021-03-08_08h59.14.448,Impossible2021,2020.1.3,Win32,60,60462d2f8138f40887a79fc4,1,,,,0,,0,61,61,0,1,1,,
,,,,,,,,,,,,,,,,,,,,,images/24impossible.bmp,,,,,,,,,,,,,,,,images/24impossible.bmp,,,,,,,,,,,,,,,s,impossible,0,0,288,216,144,72,0,288,216,144,72,0,288,216,144,72,0,0,288,216,144,72,0,288,216,144,72,0,288,216,144,72,5eb9b9cfb3939c0dc7b8ee43,0ih4u4wlmebp,2021-03-08_08h59.14.448,Impossible2021,2020.1.3,Win32,60,60462d2f8138f40887a79fc4,1,,,,0,,0,62,62,4,1,1,,
,,,,,,,,,,,,,,,,,,,,,,,,,,,,,,,images/24impossible.bmp,images/24impossible.bmp,images/24impossible.bmp,images/24impossible.bmp,images/24impossible.bmp,,,,,,,,,,,,,,,,images/24impossible.bmp,d,impossible,0,0,288,216,144,72,0,288,216,144,72,0,288,216,144,72,288,288,216,144,72,0,288,216,144,72,0,288,216,144,72,0,5eb9b9cfb3939c0dc7b8ee43,0ih4u4wlmebp,2021-03-08_08h59.14.448,Impossible2021,2020.1.3,Win32,60,60462d2f8138f40887a79fc4,1,,,,0,,0,63,63,106,1,5,,
,,,,,,,,,,,,,,,,,,,,,,images/65impossible.bmp,images/65impossible.bmp,,,,,,,,,,,,,,,images/65impossible.bmp,,,,,,,,,,,,,,s,impossible,144,144,72,0,288,216,144,72,0,288,216,144,72,0,288,216,144,144,72,0,288,216,144,72,0,288,216,144,72,0,288,216,5eb9b9cfb3939c0dc7b8ee43,0ih4u4wlmebp,2021-03-08_08h59.14.448,Impossible2021,2020.1.3,Win32,60,60462d2f8138f40887a79fc4,1,,,,0,,0,64,64,40,1,2,,
,,,,,,,,,,,,,,,,,,,,,,,,,,,images/22possible.bmp,images/22possible.bmp,images/22possible.bmp,images/22possible.bmp,,,,,,,,,,,,,,,images/22possible.bmp,,,,,,,d,possible,216,216,144,72,0,288,216,144,72,0,288,216,144,72,0,288,144,144,72,0,288,216,144,72,0,288,216,144,72,0,288,216,5eb9b9cfb3939c0dc7b8ee43,0ih4u4wlmebp,2021-03-08_08h59.14.448,Impossible2021,2020.1.3,Win32,60,60462d2f8138f40887a79fc4,1,,,,0,,0,65,65,81,1,4,,
,,,,,,,,,,,,,,,,,,,,,,,,images/25impossible.bmp,images/25impossible.bmp,images/25impossible.bmp,,,,,,,,,,,,,,images/25impossible.bmp,,,,,,,,,,,,d,impossible,72,72,0,288,216,144,72,0,288,216,144,72,0,288,216,144,0,0,288,216,144,72,0,288,216,144,72,0,288,216,144,72,5eb9b9cfb3939c0dc7b8ee43,0ih4u4wlmebp,2021-03-08_08h59.14.448,Impossible2021,2020.1.3,Win32,60,60462d2f8138f40887a79fc4,1,,,,0,,0,66,66,59,1,3,,
,,,,,,,,,,,,,,,,,,,,,,,,,,,images/03possible.bmp,images/03possible.bmp,images/03possible.bmp,images/03possible.bmp,,,,,,,,,,,,,,,,images/03possible.bmp,,,,,,d,possible,72,72,0,288,216,144,72,0,288,216,144,72,0,288,216,144,0,0,288,216,144,72,0,288,216,144,72,0,288,216,144,72,5eb9b9cfb3939c0dc7b8ee43,0ih4u4wlmebp,2021-03-08_08h59.14.448,Impossible2021,2020.1.3,Win32,60,60462d2f8138f40887a79fc4,1,,,,0,,0,67,67,78,1,4,,
,,,,,,,,,,,,,,,,,,,,,,images/42impossible.bmp,images/42impossible.bmp,,,,,,,,,,,,,,,,images/42impossible.bmp,,,,,,,,,,,,,s,impossible,144,144,72,0,288,216,144,72,0,288,216,144,72,0,288,216,144,144,72,0,288,216,144,72,0,288,216,144,72,0,288,216,5eb9b9cfb3939c0dc7b8ee43,0ih4u4wlmebp,2021-03-08_08h59.14.448,Impossible2021,2020.1.3,Win32,60,60462d2f8138f40887a79fc4,1,,,,0,,0,68,68,37,1,2,,
,,,,,,,,,,,,,,,,,,,,,,,,,,,,,,,images/55possible.bmp,images/55possible.bmp,images/55possible.bmp,images/55possible.bmp,images/55possible.bmp,,,,,,,,,,,,images/55possible.bmp,,,,,d,possible,72,72,0,288,216,144,72,0,288,216,144,72,0,288,216,144,0,0,288,216,144,72,0,288,216,144,72,0,288,216,144,72,5eb9b9cfb3939c0dc7b8ee43,0ih4u4wlmebp,2021-03-08_08h59.14.448,Impossible2021,2020.1.3,Win32,60,60462d2f8138f40887a79fc4,1,,,,0,,0,69,69,117,1,5,,
,,,,,,,,,,,,,,,,,,,,,,,,,,,,,,,images/38possible.bmp,images/38possible.bmp,images/38possible.bmp,images/38possible.bmp,images/38possible.bmp,,,,,,,,,,,,,,,,images/38possible.bmp,d,possible,72,72,0,288,216,144,72,0,288,216,144,72,0,288,216,144,0,0,288,216,144,72,0,288,216,144,72,0,288,216,144,72,5eb9b9cfb3939c0dc7b8ee43,0ih4u4wlmebp,2021-03-08_08h59.14.448,Impossible2021,2020.1.3,Win32,60,60462d2f8138f40887a79fc4,1,,,,0,,0,70,70,114,1,5,,
,,,,,,,,,,,,,,,,,,,,images/65possible.bmp,,,,,,,,,,,,,,,,images/65possible.bmp,,,,,,,,,,,,,,,,s,possible,144,144,72,0,288,216,144,72,0,288,216,144,72,0,288,216,144,144,72,0,288,216,144,72,0,288,216,144,72,0,288,216,5eb9b9cfb3939c0dc7b8ee43,0ih4u4wlmebp,2021-03-08_08h59.14.448,Impossible2021,2020.1.3,Win32,60,60462d2f8138f40887a79fc4,1,,,,0,,0,71,71,16,1,1,,
,,,,,,,,,,,,,,,,,,,,images/38possible.bmp,,,,,,,,,,,,,,,,images/38possible.bmp,,,,,,,,,,,,,,,,s,possible,72,72,0,288,216,144,72,0,288,216,144,72,0,288,216,144,72,72,0,288,216,144,72,0,288,216,144,72,0,288,216,144,5eb9b9cfb3939c0dc7b8ee43,0ih4u4wlmebp,2021-03-08_08h59.14.448,Impossible2021,2020.1.3,Win32,60,60462d2f8138f40887a79fc4,1,,,,0,,0,72,72,12,1,1,,
,,,,,,,,,,,,,,,,,,,,,,,,images/69possible.bmp,images/69possible.bmp,images/69possible.bmp,,,,,,,,,,,,,,images/69possible.bmp,,,,,,,,,,,,d,possible,216,216,144,72,0,288,216,144,72,0,288,216,144,72,0,288,144,144,72,0,288,216,144,72,0,288,216,144,72,0,288,216,5eb9b9cfb3939c0dc7b8ee43,0ih4u4wlmebp,2021-03-08_08h59.14.448,Impossible2021,2020.1.3,Win32,60,60462d2f8138f40887a79fc4,1,,,,0,,0,73,73,71,1,3,,
,,,,,,,,,,,,,,,,,,,,,,,,images/22impossible.bmp,images/22impossible.bmp,images/22impossible.bmp,,,,,,,,,,,,,,,,images/22impossible.bmp,,,,,,,,,,d,impossible,216,216,144,72,0,288,216,144,72,0,288,216,144,72,0,288,144,144,72,0,288,216,144,72,0,288,216,144,72,0,288,216,5eb9b9cfb3939c0dc7b8ee43,0ih4u4wlmebp,2021-03-08_08h59.14.448,Impossible2021,2020.1.3,Win32,60,60462d2f8138f40887a79fc4,1,,,,0,,0,74,74,57,1,3,,
,,,,,,,,,,,,,,,,,,,,images/42possible.bmp,,,,,,,,,,,,,,,,images/42possible.bmp,,,,,,,,,,,,,,,,d,possible,144,144,72,0,288,216,144,72,0,288,216,144,72,0,288,216,72,72,0,288,216,144,72,0,288,216,144,72,0,288,216,144,5eb9b9cfb3939c0dc7b8ee43,0ih4u4wlmebp,2021-03-08_08h59.14.448,Impossible2021,2020.1.3,Win32,60,60462d2f8138f40887a79fc4,1,,,,0,,0,75,75,19,1,1,,
,,,,,,,,,,,,,,,,,,,,,images/38possible.bmp,,,,,,,,,,,,,,,,images/38possible.bmp,,,,,,,,,,,,,,,d,possible,72,72,0,288,216,144,72,0,288,216,144,72,0,288,216,144,0,0,288,216,144,72,0,288,216,144,72,0,288,216,144,72,5eb9b9cfb3939c0dc7b8ee43,0ih4u4wlmebp,2021-03-08_08h59.14.448,Impossible2021,2020.1.3,Win32,60,60462d2f8138f40887a79fc4,1,,,,0,,0,76,76,18,1,1,,
,,,,,,,,,,,,,,,,,,,,,,,,images/22impossible.bmp,images/22impossible.bmp,images/22impossible.bmp,,,,,,,,,,,,,,,,images/22impossible.bmp,,,,,,,,,,s,impossible,216,216,144,72,0,288,216,144,72,0,288,216,144,72,0,288,216,216,144,72,0,288,216,144,72,0,288,216,144,72,0,288,5eb9b9cfb3939c0dc7b8ee43,0ih4u4wlmebp,2021-03-08_08h59.14.448,Impossible2021,2020.1.3,Win32,60,60462d2f8138f40887a79fc4,1,,,,0,,0,77,77,51,1,3,,
,,,,,,,,,,,,,,,,,,,,,,,,,,,,,,,images/25impossible.bmp,images/25impossible.bmp,images/25impossible.bmp,images/25impossible.bmp,images/25impossible.bmp,,,,,,,,,,,,,,,,images/25impossible.bmp,d,impossible,72,72,0,288,216,144,72,0,288,216,144,72,0,288,216,144,0,0,288,216,144,72,0,288,216,144,72,0,288,216,144,72,5eb9b9cfb3939c0dc7b8ee43,0ih4u4wlmebp,2021-03-08_08h59.14.448,Impossible2021,2020.1.3,Win32,60,60462d2f8138f40887a79fc4,1,,,,0,,0,78,78,107,1,5,,
,,,,,,,,,,,,,,,,,,,,,,,,images/08impossible.bmp,images/08impossible.bmp,images/08impossible.bmp,,,,,,,,,,,,,,,images/08impossible.bmp,,,,,,,,,,,d,impossible,288,288,216,144,72,0,288,216,144,72,0,288,216,144,72,0,216,216,144,72,0,288,216,144,72,0,288,216,144,72,0,288,5eb9b9cfb3939c0dc7b8ee43,0ih4u4wlmebp,2021-03-08_08h59.14.448,Impossible2021,2020.1.3,Win32,60,60462d2f8138f40887a79fc4,1,,,,0,,0,79,79,56,1,3,,
,,,,,,,,,,,,,,,,,,,,,,,,,,,,,,,images/08impossible.bmp,images/08impossible.bmp,images/08impossible.bmp,images/08impossible.bmp,images/08impossible.bmp,,,,,,,,,,,,,images/08impossible.bmp,,,,d,impossible,288,288,216,144,72,0,288,216,144,72,0,288,216,144,72,0,216,216,144,72,0,288,216,144,72,0,288,216,144,72,0,288,5eb9b9cfb3939c0dc7b8ee43,0ih4u4wlmebp,2021-03-08_08h59.14.448,Impossible2021,2020.1.3,Win32,60,60462d2f8138f40887a79fc4,1,,,d,1,0.343105,0,80,80,104,1,5,,
,,,,,,,,,,,,,,,,,,,,,,,,,,,,,,,images/22impossible.bmp,images/22impossible.bmp,images/22impossible.bmp,images/22impossible.bmp,images/22impossible.bmp,,,,,,,,,,,,,images/22impossible.bmp,,,,s,impossible,216,216,144,72,0,288,216,144,72,0,288,216,144,72,0,288,216,216,144,72,0,288,216,144,72,0,288,216,144,72,0,288,5eb9b9cfb3939c0dc7b8ee43,0ih4u4wlmebp,2021-03-08_08h59.14.448,Impossible2021,2020.1.3,Win32,60,60462d2f8138f40887a79fc4,1,,,,0,,0,81,81,99,1,5,,
,,,,,,,,,,,,,,,,,,,,,,images/42impossible.bmp,images/42impossible.bmp,,,,,,,,,,,,,,,,images/42impossible.bmp,,,,,,,,,,,,,d,impossible,144,144,72,0,288,216,144,72,0,288,216,144,72,0,288,216,72,72,0,288,216,144,72,0,288,216,144,72,0,288,216,144,5eb9b9cfb3939c0dc7b8ee43,0ih4u4wlmebp,2021-03-08_08h59.14.448,Impossible2021,2020.1.3,Win32,60,60462d2f8138f40887a79fc4,1,,,,0,,0,82,82,43,1,2,,
,,,,,,,,,,,,,,,,,,,,,,,,images/65possible.bmp,images/65possible.bmp,images/65possible.bmp,,,,,,,,,,,,,,,images/65possible.bmp,,,,,,,,,,,s,possible,144,144,72,0,288,216,144,72,0,288,216,144,72,0,288,216,144,144,72,0,288,216,144,72,0,288,216,144,72,0,288,216,5eb9b9cfb3939c0dc7b8ee43,0ih4u4wlmebp,2021-03-08_08h59.14.448,Impossible2021,2020.1.3,Win32,60,60462d2f8138f40887a79fc4,1,,,,0,,0,83,83,64,1,3,,
,,,,,,,,,,,,,,,,,,,,,,,,,,,,,,,images/08impossible.bmp,images/08impossible.bmp,images/08impossible.bmp,images/08impossible.bmp,images/08impossible.bmp,,,,,,,,,,,,,,,,images/08impossible.bmp,s,impossible,288,288,216,144,72,0,288,216,144,72,0,288,216,144,72,0,288,288,216,144,72,0,288,216,144,72,0,288,216,144,72,0,5eb9b9cfb3939c0dc7b8ee43,0ih4u4wlmebp,2021-03-08_08h59.14.448,Impossible2021,2020.1.3,Win32,60,60462d2f8138f40887a79fc4,1,,,,0,,0,84,84,98,1,5,,
,,,,,,,,,,,,,,,,,,,,,,,,,,,,,,,images/22impossible.bmp,images/22impossible.bmp,images/22impossible.bmp,images/22impossible.bmp,images/22impossible.bmp,,,,,,,,,,,,,,images/22impossible.bmp,,,d,impossible,216,216,144,72,0,288,216,144,72,0,288,216,144,72,0,288,144,144,72,0,288,216,144,72,0,288,216,144,72,0,288,216,5eb9b9cfb3939c0dc7b8ee43,0ih4u4wlmebp,2021-03-08_08h59.14.448,Impossible2021,2020.1.3,Win32,60,60462d2f8138f40887a79fc4,1,,,,0,,0,85,85,105,1,5,,
,,,,,,,,,,,,,,,,,,,,,,,,,,,,,,,images/05impossible.bmp,images/05impossible.bmp,images/05impossible.bmp,images/05impossible.bmp,images/05impossible.bmp,,,,,,,,,,,,,,images/05impossible.bmp,,,d,impossible,216,216,144,72,0,288,216,144,72,0,288,216,144,72,0,288,144,144,72,0,288,216,144,72,0,288,216,144,72,0,288,216,5eb9b9cfb3939c0dc7b8ee43,0ih4u4wlmebp,2021-03-08_08h59.14.448,Impossible2021,2020.1.3,Win32,60,60462d2f8138f40887a79fc4,1,,,,0,,0,86,86,103,1,5,,
,,,,,,,,,,,,,,,,,,,,,,,,images/42possible.bmp,images/42possible.bmp,images/42possible.bmp,,,,,,,,,,,,,,images/42possible.bmp,,,,,,,,,,,,d,possible,144,144,72,0,288,216,144,72,0,288,216,144,72,0,288,216,72,72,0,288,216,144,72,0,288,216,144,72,0,288,216,144,5eb9b9cfb3939c0dc7b8ee43,0ih4u4wlmebp,2021-03-08_08h59.14.448,Impossible2021,2020.1.3,Win32,60,60462d2f8138f40887a79fc4,1,,,,0,,0,87,87,67,1,3,,
,,,,,,,,,,,,,,,,,,,,,,images/55impossible.bmp,images/55impossible.bmp,,,,,,,,,,,,,,,,images/55impossible.bmp,,,,,,,,,,,,,d,impossible,72,72,0,288,216,144,72,0,288,216,144,72,0,288,216,144,0,0,288,216,144,72,0,288,216,144,72,0,288,216,144,72,5eb9b9cfb3939c0dc7b8ee43,0ih4u4wlmebp,2021-03-08_08h59.14.448,Impossible2021,2020.1.3,Win32,60,60462d2f8138f40887a79fc4,1,,,s,0,0.316705,0,88,88,45,1,2,,
,,,,,,,,,,,,,,,,,,,,,,,,,,,images/05possible.bmp,images/05possible.bmp,images/05possible.bmp,images/05possible.bmp,,,,,,,,,,,,,,,images/05possible.bmp,,,,,,,d,possible,216,216,144,72,0,288,216,144,72,0,288,216,144,72,0,288,144,144,72,0,288,216,144,72,0,288,216,144,72,0,288,216,5eb9b9cfb3939c0dc7b8ee43,0ih4u4wlmebp,2021-03-08_08h59.14.448,Impossible2021,2020.1.3,Win32,60,60462d2f8138f40887a79fc4,1,,,s,0,0.344505,0,89,89,79,1,4,,
,,,,,,,,,,,,,,,,,,,,,,,,,,,,,,,images/38possible.bmp,images/38possible.bmp,images/38possible.bmp,images/38possible.bmp,images/38possible.bmp,,,,,,,,,,,,images/38possible.bmp,,,,,s,possible,72,72,0,288,216,144,72,0,288,216,144,72,0,288,216,144,72,72,0,288,216,144,72,0,288,216,144,72,0,288,216,144,5eb9b9cfb3939c0dc7b8ee43,0ih4u4wlmebp,2021-03-08_08h59.14.448,Impossible2021,2020.1.3,Win32,60,60462d2f8138f40887a79fc4,1,,,s,1,0.335905,0,90,90,108,1,5,,
,,,,,,,,,,,,,,,,,,,,,,,,,,,images/24possible.bmp,images/24possible.bmp,images/24possible.bmp,images/24possible.bmp,,,,,,,,,,,,,,,,images/24possible.bmp,,,,,,d,possible,0,0,288,216,144,72,0,288,216,144,72,0,288,216,144,72,288,288,216,144,72,0,288,216,144,72,0,288,216,144,72,0,5eb9b9cfb3939c0dc7b8ee43,0ih4u4wlmebp,2021-03-08_08h59.14.448,Impossible2021,2020.1.3,Win32,60,60462d2f8138f40887a79fc4,1,,,d,1,0.320965,0,91,91,82,1,4,,
,,,,,,,,,,,,,,,,,,,,,,images/38impossible.bmp,images/38impossible.bmp,,,,,,,,,,,,,,,images/38impossible.bmp,,,,,,,,,,,,,,s,impossible,72,72,0,288,216,144,72,0,288,216,144,72,0,288,216,144,72,72,0,288,216,144,72,0,288,216,144,72,0,288,216,144,5eb9b9cfb3939c0dc7b8ee43,0ih4u4wlmebp,2021-03-08_08h59.14.448,Impossible2021,2020.1.3,Win32,60,60462d2f8138f40887a79fc4,1,,,d,0,0.394075,0,92,92,36,1,2,,
,,,,,,,,,,,,,,,,,,,,,,images/55impossible.bmp,images/55impossible.bmp,,,,,,,,,,,,,,,,images/55impossible.bmp,,,,,,,,,,,,,s,impossible,72,72,0,288,216,144,72,0,288,216,144,72,0,288,216,144,72,72,0,288,216,144,72,0,288,216,144,72,0,288,216,144,5eb9b9cfb3939c0dc7b8ee43,0ih4u4wlmebp,2021-03-08_08h59.14.448,Impossible2021,2020.1.3,Win32,60,60462d2f8138f40887a79fc4,1,,,d,0,0.844055,0,93,93,39,1,2,,
,,,,,,,,,,,,,,,,,,,,,,,,,,,,,,,images/44possible.bmp,images/44possible.bmp,images/44possible.bmp,images/44possible.bmp,images/44possible.bmp,,,,,,,,,,,,,,images/44possible.bmp,,,d,possible,216,216,144,72,0,288,216,144,72,0,288,216,144,72,0,288,144,144,72,0,288,216,144,72,0,288,216,144,72,0,288,216,5eb9b9cfb3939c0dc7b8ee43,0ih4u4wlmebp,2021-03-08_08h59.14.448,Impossible2021,2020.1.3,Win32,60,60462d2f8138f40887a79fc4,1,,,s,0,0.314015,0,94,94,116,1,5,,
,,,,,,,,,,,,,,,,,,,,,,,,images/38possible.bmp,images/38possible.bmp,images/38possible.bmp,,,,,,,,,,,,,,,images/38possible.bmp,,,,,,,,,,,d,possible,72,72,0,288,216,144,72,0,288,216,144,72,0,288,216,144,0,0,288,216,144,72,0,288,216,144,72,0,288,216,144,72,5eb9b9cfb3939c0dc7b8ee43,0ih4u4wlmebp,2021-03-08_08h59.14.448,Impossible2021,2020.1.3,Win32,60,60462d2f8138f40887a79fc4,1,,,s,0,0.34779,0,95,95,66,1,3,,
,,,,,,,,,,,,,,,,,,,,,,,,images/42possible.bmp,images/42possible.bmp,images/42possible.bmp,,,,,,,,,,,,,,,,images/42possible.bmp,,,,,,,,,,s,possible,144,144,72,0,288,216,144,72,0,288,216,144,72,0,288,216,144,144,72,0,288,216,144,72,0,288,216,144,72,0,288,216,5eb9b9cfb3939c0dc7b8ee43,0ih4u4wlmebp,2021-03-08_08h59.14.448,Impossible2021,2020.1.3,Win32,60,60462d2f8138f40887a79fc4,1,,,s,1,0.326455,0,96,96,61,1,3,,
,,,,,,,,,,,,,,,,,,,,,,images/44impossible.bmp,images/44impossible.bmp,,,,,,,,,,,,,,,images/44impossible.bmp,,,,,,,,,,,,,,s,impossible,216,216,144,72,0,288,216,144,72,0,288,216,144,72,0,288,216,216,144,72,0,288,216,144,72,0,288,216,144,72,0,288,5eb9b9cfb3939c0dc7b8ee43,0ih4u4wlmebp,2021-03-08_08h59.14.448,Impossible2021,2020.1.3,Win32,60,60462d2f8138f40887a79fc4,1,,,d,0,3.216315,0,97,97,38,1,2,,
,,,,,,,,,,,,,,,,,,,,images/22impossible.bmp,,,,,,,,,,,,,,,,images/22impossible.bmp,,,,,,,,,,,,,,,,d,impossible,216,216,144,72,0,288,216,144,72,0,288,216,144,72,0,288,144,144,72,0,288,216,144,72,0,288,216,144,72,0,288,216,5eb9b9cfb3939c0dc7b8ee43,0ih4u4wlmebp,2021-03-08_08h59.14.448,Impossible2021,2020.1.3,Win32,60,60462d2f8138f40887a79fc4,1,,,,0,,0,98,98,9,1,1,,
,,,,,,,,,,,,,,,,,,,,,,,,,,,images/25possible.bmp,images/25possible.bmp,images/25possible.bmp,images/25possible.bmp,,,,,,,,,,,,,,images/25possible.bmp,,,,,,,,d,possible,72,72,0,288,216,144,72,0,288,216,144,72,0,288,216,144,0,0,288,216,144,72,0,288,216,144,72,0,288,216,144,72,5eb9b9cfb3939c0dc7b8ee43,0ih4u4wlmebp,2021-03-08_08h59.14.448,Impossible2021,2020.1.3,Win32,60,60462d2f8138f40887a79fc4,1,,,s,0,0.3366,0,99,99,83,1,4,,
,,,,,,,,,,,,,,,,,,,,images/24impossible.bmp,,,,,,,,,,,,,,,,images/24impossible.bmp,,,,,,,,,,,,,,,,d,impossible,0,0,288,216,144,72,0,288,216,144,72,0,288,216,144,72,288,288,216,144,72,0,288,216,144,72,0,288,216,144,72,0,5eb9b9cfb3939c0dc7b8ee43,0ih4u4wlmebp,2021-03-08_08h59.14.448,Impossible2021,2020.1.3,Win32,60,60462d2f8138f40887a79fc4,1,,,,0,,0,100,100,10,1,1,,
,,,,,,,,,,,,,,,,,,,,,,images/69impossible.bmp,images/69impossible.bmp,,,,,,,,,,,,,,,,images/69impossible.bmp,,,,,,,,,,,,,d,impossible,216,216,144,72,0,288,216,144,72,0,288,216,144,72,0,288,144,144,72,0,288,216,144,72,0,288,216,144,72,0,288,216,5eb9b9cfb3939c0dc7b8ee43,0ih4u4wlmebp,2021-03-08_08h59.14.448,Impossible2021,2020.1.3,Win32,60,60462d2f8138f40887a79fc4,1,,,,0,,0,101,101,47,1,2,,
,,,,,,,,,,,,,,,,,,,,,,,,,,,,,,,images/03impossible.bmp,images/03impossible.bmp,images/03impossible.bmp,images/03impossible.bmp,images/03impossible.bmp,,,,,,,,,,,,,images/03impossible.bmp,,,,s,impossible,72,72,0,288,216,144,72,0,288,216,144,72,0,288,216,144,72,72,0,288,216,144,72,0,288,216,144,72,0,288,216,144,5eb9b9cfb3939c0dc7b8ee43,0ih4u4wlmebp,2021-03-08_08h59.14.448,Impossible2021,2020.1.3,Win32,60,60462d2f8138f40887a79fc4,1,,,,0,,0,102,102,96,1,5,,
,,,,,,,,,,,,,,,,,,,,,images/44possible.bmp,,,,,,,,,,,,,,,,images/44possible.bmp,,,,,,,,,,,,,,,d,possible,216,216,144,72,0,288,216,144,72,0,288,216,144,72,0,288,144,144,72,0,288,216,144,72,0,288,216,144,72,0,288,216,5eb9b9cfb3939c0dc7b8ee43,0ih4u4wlmebp,2021-03-08_08h59.14.448,Impossible2021,2020.1.3,Win32,60,60462d2f8138f40887a79fc4,1,,,s,0,0.247705,0,103,103,20,1,1,,
,,,,,,,,,,,,,,,,,,,,images/69possible.bmp,,,,,,,,,,,,,,,,images/69possible.bmp,,,,,,,,,,,,,,,,d,possible,216,216,144,72,0,288,216,144,72,0,288,216,144,72,0,288,144,144,72,0,288,216,144,72,0,288,216,144,72,0,288,216,5eb9b9cfb3939c0dc7b8ee43,0ih4u4wlmebp,2021-03-08_08h59.14.448,Impossible2021,2020.1.3,Win32,60,60462d2f8138f40887a79fc4,1,,,s,0,0.37758,0,104,104,23,1,1,,
,,,,,,,,,,,,,,,,,,,,,,,,,,,images/03possible.bmp,images/03possible.bmp,images/03possible.bmp,images/03possible.bmp,,,,,,,,,,,,,,images/03possible.bmp,,,,,,,,s,possible,72,72,0,288,216,144,72,0,288,216,144,72,0,288,216,144,72,72,0,288,216,144,72,0,288,216,144,72,0,288,216,144,5eb9b9cfb3939c0dc7b8ee43,0ih4u4wlmebp,2021-03-08_08h59.14.448,Impossible2021,2020.1.3,Win32,60,60462d2f8138f40887a79fc4,1,,,s,1,0.3391,0,105,105,72,1,4,,
,,,,,,,,,,,,,,,,,,,,,,,,,,,images/55impossible.bmp,images/55impossible.bmp,images/55impossible.bmp,images/55impossible.bmp,,,,,,,,,,,,,,,,images/55impossible.bmp,,,,,,d,impossible,72,72,0,288,216,144,72,0,288,216,144,72,0,288,216,144,0,0,288,216,144,72,0,288,216,144,72,0,288,216,144,72,5eb9b9cfb3939c0dc7b8ee43,0ih4u4wlmebp,2021-03-08_08h59.14.448,Impossible2021,2020.1.3,Win32,60,60462d2f8138f40887a79fc4,1,,,s,0,0.38538,0,106,106,93,1,4,,
,,,,,,,,,,,,,,,,,,,,,,,,,,,images/65impossible.bmp,images/65impossible.bmp,images/65impossible.bmp,images/65impossible.bmp,,,,,,,,,,,,,,,images/65impossible.bmp,,,,,,,s,impossible,144,144,72,0,288,216,144,72,0,288,216,144,72,0,288,216,144,144,72,0,288,216,144,72,0,288,216,144,72,0,288,216,5eb9b9cfb3939c0dc7b8ee43,0ih4u4wlmebp,2021-03-08_08h59.14.448,Impossible2021,2020.1.3,Win32,60,60462d2f8138f40887a79fc4,1,,,d,0,0.31925,0,107,107,88,1,4,,
,,,,,,,,,,,,,,,,,,,,,,,,,,,images/69impossible.bmp,images/69impossible.bmp,images/69impossible.bmp,images/69impossible.bmp,,,,,,,,,,,,,,,,images/69impossible.bmp,,,,,,s,impossible,216,216,144,72,0,288,216,144,72,0,288,216,144,72,0,288,216,216,144,72,0,288,216,144,72,0,288,216,144,72,0,288,5eb9b9cfb3939c0dc7b8ee43,0ih4u4wlmebp,2021-03-08_08h59.14.448,Impossible2021,2020.1.3,Win32,60,60462d2f8138f40887a79fc4,1,,,d,0,0.25419,0,108,108,89,1,4,,
,,,,,,,,,,,,,,,,,,,,,,,,,,,images/55impossible.bmp,images/55impossible.bmp,images/55impossible.bmp,images/55impossible.bmp,,,,,,,,,,,,,,images/55impossible.bmp,,,,,,,,s,impossible,72,72,0,288,216,144,72,0,288,216,144,72,0,288,216,144,72,72,0,288,216,144,72,0,288,216,144,72,0,288,216,144,5eb9b9cfb3939c0dc7b8ee43,0ih4u4wlmebp,2021-03-08_08h59.14.448,Impossible2021,2020.1.3,Win32,60,60462d2f8138f40887a79fc4,1,,,d,0,0.591775,0,109,109,87,1,4,,
,,,,,,,,,,,,,,,,,,,,,images/25impossible.bmp,,,,,,,,,,,,,,,,images/25impossible.bmp,,,,,,,,,,,,,,,d,impossible,72,72,0,288,216,144,72,0,288,216,144,72,0,288,216,144,0,0,288,216,144,72,0,288,216,144,72,0,288,216,144,72,5eb9b9cfb3939c0dc7b8ee43,0ih4u4wlmebp,2021-03-08_08h59.14.448,Impossible2021,2020.1.3,Win32,60,60462d2f8138f40887a79fc4,1,,,d,1,0.28211,0,110,110,11,1,1,,
,,,,,,,,,,,,,,,,,,,,images/25impossible.bmp,,,,,,,,,,,,,,,,images/25impossible.bmp,,,,,,,,,,,,,,,,s,impossible,72,72,0,288,216,144,72,0,288,216,144,72,0,288,216,144,72,72,0,288,216,144,72,0,288,216,144,72,0,288,216,144,5eb9b9cfb3939c0dc7b8ee43,0ih4u4wlmebp,2021-03-08_08h59.14.448,Impossible2021,2020.1.3,Win32,60,60462d2f8138f40887a79fc4,1,,,s,1,0.360135,0,111,111,5,1,1,,
,,,,,,,,,,,,,,,,,,,,,,,,,,,,,,,images/65possible.bmp,images/65possible.bmp,images/65possible.bmp,images/65possible.bmp,images/65possible.bmp,,,,,,,,,,,,,,,images/65possible.bmp,,s,possible,144,144,72,0,288,216,144,72,0,288,216,144,72,0,288,216,144,144,72,0,288,216,144,72,0,288,216,144,72,0,288,216,5eb9b9cfb3939c0dc7b8ee43,0ih4u4wlmebp,2021-03-08_08h59.14.448,Impossible2021,2020.1.3,Win32,60,60462d2f8138f40887a79fc4,1,,,d,0,0.27247,0,112,112,112,1,5,,
,,,,,,,,,,,,,,,,,,,,,images/08impossible.bmp,,,,,,,,,,,,,,,,images/08impossible.bmp,,,,,,,,,,,,,,,s,impossible,288,288,216,144,72,0,288,216,144,72,0,288,216,144,72,0,288,288,216,144,72,0,288,216,144,72,0,288,216,144,72,0,5eb9b9cfb3939c0dc7b8ee43,0ih4u4wlmebp,2021-03-08_08h59.14.448,Impossible2021,2020.1.3,Win32,60,60462d2f8138f40887a79fc4,1,,,,0,,0,113,113,2,1,1,,
,,,,,,,,,,,,,,,,,,,,,,images/24possible.bmp,images/24possible.bmp,,,,,,,,,,,,,,,images/24possible.bmp,,,,,,,,,,,,,,d,possible,0,0,288,216,144,72,0,288,216,144,72,0,288,216,144,72,288,288,216,144,72,0,288,216,144,72,0,288,216,144,72,0,5eb9b9cfb3939c0dc7b8ee43,0ih4u4wlmebp,2021-03-08_08h59.14.448,Impossible2021,2020.1.3,Win32,60,60462d2f8138f40887a79fc4,1,,,,0,,0,114,114,34,1,2,,
,,,,,,,,,,,,,,,,,,,,,,,,,,,,,,,images/03impossible.bmp,images/03impossible.bmp,images/03impossible.bmp,images/03impossible.bmp,images/03impossible.bmp,,,,,,,,,,,,,,,,images/03impossible.bmp,d,impossible,72,72,0,288,216,144,72,0,288,216,144,72,0,288,216,144,0,0,288,216,144,72,0,288,216,144,72,0,288,216,144,72,5eb9b9cfb3939c0dc7b8ee43,0ih4u4wlmebp,2021-03-08_08h59.14.448,Impossible2021,2020.1.3,Win32,60,60462d2f8138f40887a79fc4,1,,,d,1,0.28848,0,115,115,102,1,5,,
,,,,,,,,,,,,,,,,,,,,,,,,,,,,,,,images/05impossible.bmp,images/05impossible.bmp,images/05impossible.bmp,images/05impossible.bmp,images/05impossible.bmp,,,,,,,,,,,,,,,images/05impossible.bmp,,s,impossible,216,216,144,72,0,288,216,144,72,0,288,216,144,72,0,288,216,216,144,72,0,288,216,144,72,0,288,216,144,72,0,288,5eb9b9cfb3939c0dc7b8ee43,0ih4u4wlmebp,2021-03-08_08h59.14.448,Impossible2021,2020.1.3,Win32,60,60462d2f8138f40887a79fc4,1,,,,0,,0,116,116,97,1,5,,
,,,,,,,,,,,,,,,,,,,,,,,,,,,images/44impossible.bmp,images/44impossible.bmp,images/44impossible.bmp,images/44impossible.bmp,,,,,,,,,,,,,images/44impossible.bmp,,,,,,,,,d,impossible,216,216,144,72,0,288,216,144,72,0,288,216,144,72,0,288,144,144,72,0,288,216,144,72,0,288,216,144,72,0,288,216,5eb9b9cfb3939c0dc7b8ee43,0ih4u4wlmebp,2021-03-08_08h59.14.448,Impossible2021,2020.1.3,Win32,60,60462d2f8138f40887a79fc4,1,,,s,0,0.294475,0,117,117,92,1,4,,
,,,,,,,,,,,,,,,,,,,,,,,,images/03impossible.bmp,images/03impossible.bmp,images/03impossible.bmp,,,,,,,,,,,,,,,images/03impossible.bmp,,,,,,,,,,,d,impossible,72,72,0,288,216,144,72,0,288,216,144,72,0,288,216,144,0,0,288,216,144,72,0,288,216,144,72,0,288,216,144,72,5eb9b9cfb3939c0dc7b8ee43,0ih4u4wlmebp,2021-03-08_08h59.14.448,Impossible2021,2020.1.3,Win32,60,60462d2f8138f40887a79fc4,1,,,,0,,0,118,118,54,1,3,,
,,,,,,,,,,,,,,,,,,,,,,,,,,,,,,,images/65possible.bmp,images/65possible.bmp,images/65possible.bmp,images/65possible.bmp,images/65possible.bmp,,,,,,,,,,,,,images/65possible.bmp,,,,d,possible,144,144,72,0,288,216,144,72,0,288,216,144,72,0,288,216,72,72,0,288,216,144,72,0,288,216,144,72,0,288,216,144,5eb9b9cfb3939c0dc7b8ee43,0ih4u4wlmebp,2021-03-08_08h59.14.448,Impossible2021,2020.1.3,Win32,60,60462d2f8138f40887a79fc4,1,,,d,1,0.30367,0,119,119,118,1,5,,
,,,,,,,,,,,,,,,,,,,,,,,,,,,,,,,,,,,,,,,,,,,,,,,,,,,,,,,,,,,,,,,,,,,,,,,,,,,,,,,,,,,,,,5eb9b9cfb3939c0dc7b8ee43,0ih4u4wlmebp,2021-03-08_08h59.14.448,Impossible2021,2020.1.3,Win32,60,60462d2f8138f40887a79fc4,1,,,,,,,,,,,,k,2.056225
