consent_key.keys,consent_key.rt,intro_key_2.keys,intro_key_2.rt,key_resp_4.keys,key_resp_4.rt,key_resp_5.keys,key_resp_5.rt,key_resp_6.keys,key_resp_6.rt,key_resp_7.keys,key_resp_7.rt,keyTraining.keys,keyTraining.corr,keyTraining.rt,practiceloop.thisRepN,practiceloop.thisTrialN,practiceloop.thisN,practiceloop.thisIndex,practiceloop.ran,s11,s1_1,s12,s22,s13,s23,s33,s14,s24,s34,s44,s15,s25,s35,s45,s55,t11,t1_1,t12,t22,t13,t23,t33,t14,t24,t34,t44,t15,t25,t35,t45,t55,corrans,study,o11,o1_1,o12,o22,o13,o23,o33,o14,o24,o34,o44,o15,o25,o35,o45,o55,ot11,ot1_1,ot12,ot22,ot13,ot23,ot33,ot14,ot24,ot34,ot44,ot15,ot25,ot35,ot45,ot55,participant,session,date,expName,psychopyVersion,OS,frameRate,STUDY_ID,key_resp_2.keys,key_resp_2.rt,key_resp.keys,key_resp.corr,key_resp.rt,testloop.thisRepN,testloop.thisTrialN,testloop.thisN,testloop.thisIndex,testloop.ran,setsize,key_resp_3.keys,key_resp_3.rt
y,2.52873,space,28.76687,space,1.02338,s,7.443755,d,1.037715,space,4.22491,s,1,0.769525,0,0,0,0,1,images/06impossible.bmp,,,,,,,,,,,,,,,,images/06impossible.bmp,,,,,,,,,,,,,,,,s,,0,0,288,216,144,72,0,288,216,144,72,0,288,216,144,72,0,0,288,216,144,72,0,288,216,144,72,0,288,216,144,72,5ec5bd4ce79b5061d7a5f8a6,60464aaa1bb8ad0e62c642fc,2021-03-08_16h03.18.139,Impossible2021,2020.1.3,Win32,60,60462d2f8138f40887a79fc4,,,,,,,,,,,,,
,,,,,,,,,,,,d,1,0.561635,0,1,1,1,1,,images/06impossible.bmp,,,,,,,,,,,,,,,,images/06impossible.bmp,,,,,,,,,,,,,,,d,,216,216,144,72,0,288,216,144,72,0,288,216,144,72,0,288,144,144,72,0,288,216,144,72,0,288,216,144,72,0,288,216,5ec5bd4ce79b5061d7a5f8a6,60464aaa1bb8ad0e62c642fc,2021-03-08_16h03.18.139,Impossible2021,2020.1.3,Win32,60,60462d2f8138f40887a79fc4,,,,,,,,,,,,,
,,,,,,,,,,,,,0,,0,2,2,2,1,,,images/06impossible.bmp,images/06impossible.bmp,,,,,,,,,,,,,,,,images/06impossible.bmp,,,,,,,,,,,,,s,,288,288,216,144,72,0,288,216,144,72,0,288,216,144,72,0,288,288,216,144,72,0,288,216,144,72,0,288,216,144,72,0,5ec5bd4ce79b5061d7a5f8a6,60464aaa1bb8ad0e62c642fc,2021-03-08_16h03.18.139,Impossible2021,2020.1.3,Win32,60,60462d2f8138f40887a79fc4,,,,,,,,,,,,,
,,,,,,,,,,,,,0,,0,3,3,3,1,,,images/06impossible.bmp,images/06impossible.bmp,,,,,,,,,,,,,,,images/06impossible.bmp,,,,,,,,,,,,,,d,,144,144,72,0,288,216,144,72,0,288,216,144,72,0,288,216,72,72,0,288,216,144,72,0,288,216,144,72,0,288,216,144,5ec5bd4ce79b5061d7a5f8a6,60464aaa1bb8ad0e62c642fc,2021-03-08_16h03.18.139,Impossible2021,2020.1.3,Win32,60,60462d2f8138f40887a79fc4,,,,,,,,,,,,,
,,,,,,,,,,,,,0,,0,4,4,4,1,,,,,images/06impossible.bmp,images/06impossible.bmp,images/06impossible.bmp,,,,,,,,,,,,,,images/06impossible.bmp,,,,,,,,,,,,s,,216,216,144,72,0,288,216,144,72,0,288,216,144,72,0,288,216,216,144,72,0,288,216,144,72,0,288,216,144,72,0,288,5ec5bd4ce79b5061d7a5f8a6,60464aaa1bb8ad0e62c642fc,2021-03-08_16h03.18.139,Impossible2021,2020.1.3,Win32,60,60462d2f8138f40887a79fc4,,,,,,,,,,,,,
,,,,,,,,,,,,d,1,1.05415,0,5,5,5,1,,,,,images/06impossible.bmp,images/06impossible.bmp,images/06impossible.bmp,,,,,,,,,,,,,,,,images/06impossible.bmp,,,,,,,,,,d,,216,216,144,72,0,288,216,144,72,0,288,216,144,72,0,288,144,144,72,0,288,216,144,72,0,288,216,144,72,0,288,216,5ec5bd4ce79b5061d7a5f8a6,60464aaa1bb8ad0e62c642fc,2021-03-08_16h03.18.139,Impossible2021,2020.1.3,Win32,60,60462d2f8138f40887a79fc4,,,,,,,,,,,,,
,,,,,,,,,,,,,,,,,,,,,,,,images/25impossible.bmp,images/25impossible.bmp,images/25impossible.bmp,,,,,,,,,,,,,,images/25impossible.bmp,,,,,,,,,,,,d,impossible,72,72,0,288,216,144,72,0,288,216,144,72,0,288,216,144,0,0,288,216,144,72,0,288,216,144,72,0,288,216,144,72,5ec5bd4ce79b5061d7a5f8a6,60464aaa1bb8ad0e62c642fc,2021-03-08_16h03.18.139,Impossible2021,2020.1.3,Win32,60,60462d2f8138f40887a79fc4,space,1.292295,d,1,0.918285,0,0,0,59,1,3,,
,,,,,,,,,,,,,,,,,,,,,,images/69impossible.bmp,images/69impossible.bmp,,,,,,,,,,,,,,,,images/69impossible.bmp,,,,,,,,,,,,,s,impossible,216,216,144,72,0,288,216,144,72,0,288,216,144,72,0,288,216,216,144,72,0,288,216,144,72,0,288,216,144,72,0,288,5ec5bd4ce79b5061d7a5f8a6,60464aaa1bb8ad0e62c642fc,2021-03-08_16h03.18.139,Impossible2021,2020.1.3,Win32,60,60462d2f8138f40887a79fc4,,,s,1,0.798705,0,1,1,41,1,2,,
,,,,,,,,,,,,,,,,,,,,,,,,,,,,,,,images/05impossible.bmp,images/05impossible.bmp,images/05impossible.bmp,images/05impossible.bmp,images/05impossible.bmp,,,,,,,,,,,,,,,images/05impossible.bmp,,s,impossible,216,216,144,72,0,288,216,144,72,0,288,216,144,72,0,288,216,216,144,72,0,288,216,144,72,0,288,216,144,72,0,288,5ec5bd4ce79b5061d7a5f8a6,60464aaa1bb8ad0e62c642fc,2021-03-08_16h03.18.139,Impossible2021,2020.1.3,Win32,60,60462d2f8138f40887a79fc4,,,s,1,1.71049,0,2,2,97,1,5,,
,,,,,,,,,,,,,,,,,,,,,,,,,,,,,,,images/03impossible.bmp,images/03impossible.bmp,images/03impossible.bmp,images/03impossible.bmp,images/03impossible.bmp,,,,,,,,,,,,,images/03impossible.bmp,,,,s,impossible,72,72,0,288,216,144,72,0,288,216,144,72,0,288,216,144,72,72,0,288,216,144,72,0,288,216,144,72,0,288,216,144,5ec5bd4ce79b5061d7a5f8a6,60464aaa1bb8ad0e62c642fc,2021-03-08_16h03.18.139,Impossible2021,2020.1.3,Win32,60,60462d2f8138f40887a79fc4,,,s,1,0.95431,0,3,3,96,1,5,,
,,,,,,,,,,,,,,,,,,,,,,images/25possible.bmp,images/25possible.bmp,,,,,,,,,,,,,,,,images/25possible.bmp,,,,,,,,,,,,,s,possible,72,72,0,288,216,144,72,0,288,216,144,72,0,288,216,144,72,72,0,288,216,144,72,0,288,216,144,72,0,288,216,144,5ec5bd4ce79b5061d7a5f8a6,60464aaa1bb8ad0e62c642fc,2021-03-08_16h03.18.139,Impossible2021,2020.1.3,Win32,60,60462d2f8138f40887a79fc4,,,s,1,0.95407,0,4,4,29,1,2,,
,,,,,,,,,,,,,,,,,,,,,,,,,,,images/24possible.bmp,images/24possible.bmp,images/24possible.bmp,images/24possible.bmp,,,,,,,,,,,,,images/24possible.bmp,,,,,,,,,s,possible,0,0,288,216,144,72,0,288,216,144,72,0,288,216,144,72,0,0,288,216,144,72,0,288,216,144,72,0,288,216,144,72,5ec5bd4ce79b5061d7a5f8a6,60464aaa1bb8ad0e62c642fc,2021-03-08_16h03.18.139,Impossible2021,2020.1.3,Win32,60,60462d2f8138f40887a79fc4,,,s,1,1.31016,0,5,5,76,1,4,,
,,,,,,,,,,,,,,,,,,,,images/38possible.bmp,,,,,,,,,,,,,,,,images/38possible.bmp,,,,,,,,,,,,,,,,s,possible,72,72,0,288,216,144,72,0,288,216,144,72,0,288,216,144,72,72,0,288,216,144,72,0,288,216,144,72,0,288,216,144,5ec5bd4ce79b5061d7a5f8a6,60464aaa1bb8ad0e62c642fc,2021-03-08_16h03.18.139,Impossible2021,2020.1.3,Win32,60,60462d2f8138f40887a79fc4,,,s,1,0.73709,0,6,6,12,1,1,,
,,,,,,,,,,,,,,,,,,,,,,,,images/65possible.bmp,images/65possible.bmp,images/65possible.bmp,,,,,,,,,,,,,,,images/65possible.bmp,,,,,,,,,,,s,possible,144,144,72,0,288,216,144,72,0,288,216,144,72,0,288,216,144,144,72,0,288,216,144,72,0,288,216,144,72,0,288,216,5ec5bd4ce79b5061d7a5f8a6,60464aaa1bb8ad0e62c642fc,2021-03-08_16h03.18.139,Impossible2021,2020.1.3,Win32,60,60462d2f8138f40887a79fc4,,,s,1,0.83748,0,7,7,64,1,3,,
,,,,,,,,,,,,,,,,,,,,,,,,,,,,,,,images/55possible.bmp,images/55possible.bmp,images/55possible.bmp,images/55possible.bmp,images/55possible.bmp,,,,,,,,,,,,,,,,images/55possible.bmp,s,possible,72,72,0,288,216,144,72,0,288,216,144,72,0,288,216,144,72,72,0,288,216,144,72,0,288,216,144,72,0,288,216,144,5ec5bd4ce79b5061d7a5f8a6,60464aaa1bb8ad0e62c642fc,2021-03-08_16h03.18.139,Impossible2021,2020.1.3,Win32,60,60462d2f8138f40887a79fc4,,,s,1,0.87627,0,8,8,111,1,5,,
,,,,,,,,,,,,,,,,,,,,,,,,,,,images/24possible.bmp,images/24possible.bmp,images/24possible.bmp,images/24possible.bmp,,,,,,,,,,,,,,,,images/24possible.bmp,,,,,,d,possible,0,0,288,216,144,72,0,288,216,144,72,0,288,216,144,72,288,288,216,144,72,0,288,216,144,72,0,288,216,144,72,0,5ec5bd4ce79b5061d7a5f8a6,60464aaa1bb8ad0e62c642fc,2021-03-08_16h03.18.139,Impossible2021,2020.1.3,Win32,60,60462d2f8138f40887a79fc4,,,d,1,1.096365,0,9,9,82,1,4,,
,,,,,,,,,,,,,,,,,,,,images/03impossible.bmp,,,,,,,,,,,,,,,,images/03impossible.bmp,,,,,,,,,,,,,,,,s,impossible,72,72,0,288,216,144,72,0,288,216,144,72,0,288,216,144,72,72,0,288,216,144,72,0,288,216,144,72,0,288,216,144,5ec5bd4ce79b5061d7a5f8a6,60464aaa1bb8ad0e62c642fc,2021-03-08_16h03.18.139,Impossible2021,2020.1.3,Win32,60,60462d2f8138f40887a79fc4,,,s,1,0.70091,0,10,10,0,1,1,,
,,,,,,,,,,,,,,,,,,,,,,,,,,,images/22possible.bmp,images/22possible.bmp,images/22possible.bmp,images/22possible.bmp,,,,,,,,,,,,,,images/22possible.bmp,,,,,,,,s,possible,216,216,144,72,0,288,216,144,72,0,288,216,144,72,0,288,216,216,144,72,0,288,216,144,72,0,288,216,144,72,0,288,5ec5bd4ce79b5061d7a5f8a6,60464aaa1bb8ad0e62c642fc,2021-03-08_16h03.18.139,Impossible2021,2020.1.3,Win32,60,60462d2f8138f40887a79fc4,,,s,1,1.05246,0,11,11,75,1,4,,
,,,,,,,,,,,,,,,,,,,,images/65possible.bmp,,,,,,,,,,,,,,,,images/65possible.bmp,,,,,,,,,,,,,,,,s,possible,144,144,72,0,288,216,144,72,0,288,216,144,72,0,288,216,144,144,72,0,288,216,144,72,0,288,216,144,72,0,288,216,5ec5bd4ce79b5061d7a5f8a6,60464aaa1bb8ad0e62c642fc,2021-03-08_16h03.18.139,Impossible2021,2020.1.3,Win32,60,60462d2f8138f40887a79fc4,,,s,1,0.48281,0,12,12,16,1,1,,
,,,,,,,,,,,,,,,,,,,,,,images/24possible.bmp,images/24possible.bmp,,,,,,,,,,,,,,,images/24possible.bmp,,,,,,,,,,,,,,d,possible,0,0,288,216,144,72,0,288,216,144,72,0,288,216,144,72,288,288,216,144,72,0,288,216,144,72,0,288,216,144,72,0,5ec5bd4ce79b5061d7a5f8a6,60464aaa1bb8ad0e62c642fc,2021-03-08_16h03.18.139,Impossible2021,2020.1.3,Win32,60,60462d2f8138f40887a79fc4,,,s,0,1.11931,0,13,13,34,1,2,,
,,,,,,,,,,,,,,,,,,,,,,,,images/44possible.bmp,images/44possible.bmp,images/44possible.bmp,,,,,,,,,,,,,,images/44possible.bmp,,,,,,,,,,,,d,possible,216,216,144,72,0,288,216,144,72,0,288,216,144,72,0,288,144,144,72,0,288,216,144,72,0,288,216,144,72,0,288,216,5ec5bd4ce79b5061d7a5f8a6,60464aaa1bb8ad0e62c642fc,2021-03-08_16h03.18.139,Impossible2021,2020.1.3,Win32,60,60462d2f8138f40887a79fc4,,,d,1,0.92247,0,14,14,68,1,3,,
,,,,,,,,,,,,,,,,,,,,,images/22impossible.bmp,,,,,,,,,,,,,,,,images/22impossible.bmp,,,,,,,,,,,,,,,s,impossible,216,216,144,72,0,288,216,144,72,0,288,216,144,72,0,288,216,216,144,72,0,288,216,144,72,0,288,216,144,72,0,288,5ec5bd4ce79b5061d7a5f8a6,60464aaa1bb8ad0e62c642fc,2021-03-08_16h03.18.139,Impossible2021,2020.1.3,Win32,60,60462d2f8138f40887a79fc4,,,d,0,0.580375,0,15,15,3,1,1,,
,,,,,,,,,,,,,,,,,,,,,,,,,,,,,,,images/65possible.bmp,images/65possible.bmp,images/65possible.bmp,images/65possible.bmp,images/65possible.bmp,,,,,,,,,,,,,,,images/65possible.bmp,,s,possible,144,144,72,0,288,216,144,72,0,288,216,144,72,0,288,216,144,144,72,0,288,216,144,72,0,288,216,144,72,0,288,216,5ec5bd4ce79b5061d7a5f8a6,60464aaa1bb8ad0e62c642fc,2021-03-08_16h03.18.139,Impossible2021,2020.1.3,Win32,60,60462d2f8138f40887a79fc4,,,s,1,1.040565,0,16,16,112,1,5,,
,,,,,,,,,,,,,,,,,,,,,,,,,,,images/03possible.bmp,images/03possible.bmp,images/03possible.bmp,images/03possible.bmp,,,,,,,,,,,,,,images/03possible.bmp,,,,,,,,s,possible,72,72,0,288,216,144,72,0,288,216,144,72,0,288,216,144,72,72,0,288,216,144,72,0,288,216,144,72,0,288,216,144,5ec5bd4ce79b5061d7a5f8a6,60464aaa1bb8ad0e62c642fc,2021-03-08_16h03.18.139,Impossible2021,2020.1.3,Win32,60,60462d2f8138f40887a79fc4,,,s,1,1.433685,0,17,17,72,1,4,,
,,,,,,,,,,,,,,,,,,,,,,,,,,,,,,,images/05impossible.bmp,images/05impossible.bmp,images/05impossible.bmp,images/05impossible.bmp,images/05impossible.bmp,,,,,,,,,,,,,,images/05impossible.bmp,,,d,impossible,216,216,144,72,0,288,216,144,72,0,288,216,144,72,0,288,144,144,72,0,288,216,144,72,0,288,216,144,72,0,288,216,5ec5bd4ce79b5061d7a5f8a6,60464aaa1bb8ad0e62c642fc,2021-03-08_16h03.18.139,Impossible2021,2020.1.3,Win32,60,60462d2f8138f40887a79fc4,,,s,0,0.862425,0,18,18,103,1,5,,
,,,,,,,,,,,,,,,,,,,,images/55possible.bmp,,,,,,,,,,,,,,,,images/55possible.bmp,,,,,,,,,,,,,,,,d,possible,72,72,0,288,216,144,72,0,288,216,144,72,0,288,216,144,0,0,288,216,144,72,0,288,216,144,72,0,288,216,144,72,5ec5bd4ce79b5061d7a5f8a6,60464aaa1bb8ad0e62c642fc,2021-03-08_16h03.18.139,Impossible2021,2020.1.3,Win32,60,60462d2f8138f40887a79fc4,,,d,1,0.83143,0,19,19,21,1,1,,
,,,,,,,,,,,,,,,,,,,,,,images/55impossible.bmp,images/55impossible.bmp,,,,,,,,,,,,,,,,images/55impossible.bmp,,,,,,,,,,,,,d,impossible,72,72,0,288,216,144,72,0,288,216,144,72,0,288,216,144,0,0,288,216,144,72,0,288,216,144,72,0,288,216,144,72,5ec5bd4ce79b5061d7a5f8a6,60464aaa1bb8ad0e62c642fc,2021-03-08_16h03.18.139,Impossible2021,2020.1.3,Win32,60,60462d2f8138f40887a79fc4,,,d,1,2.91802,0,20,20,45,1,2,,
,,,,,,,,,,,,,,,,,,,,,,images/03possible.bmp,images/03possible.bmp,,,,,,,,,,,,,,,images/03possible.bmp,,,,,,,,,,,,,,d,possible,72,72,0,288,216,144,72,0,288,216,144,72,0,288,216,144,0,0,288,216,144,72,0,288,216,144,72,0,288,216,144,72,5ec5bd4ce79b5061d7a5f8a6,60464aaa1bb8ad0e62c642fc,2021-03-08_16h03.18.139,Impossible2021,2020.1.3,Win32,60,60462d2f8138f40887a79fc4,,,d,1,0.934815,0,21,21,30,1,2,,
,,,,,,,,,,,,,,,,,,,,,,,,,,,images/69impossible.bmp,images/69impossible.bmp,images/69impossible.bmp,images/69impossible.bmp,,,,,,,,,,,,,,images/69impossible.bmp,,,,,,,,d,impossible,216,216,144,72,0,288,216,144,72,0,288,216,144,72,0,288,144,144,72,0,288,216,144,72,0,288,216,144,72,0,288,216,5ec5bd4ce79b5061d7a5f8a6,60464aaa1bb8ad0e62c642fc,2021-03-08_16h03.18.139,Impossible2021,2020.1.3,Win32,60,60462d2f8138f40887a79fc4,,,s,0,1.127875,0,22,22,95,1,4,,
,,,,,,,,,,,,,,,,,,,,,,images/38impossible.bmp,images/38impossible.bmp,,,,,,,,,,,,,,,images/38impossible.bmp,,,,,,,,,,,,,,d,impossible,72,72,0,288,216,144,72,0,288,216,144,72,0,288,216,144,0,0,288,216,144,72,0,288,216,144,72,0,288,216,144,72,5ec5bd4ce79b5061d7a5f8a6,60464aaa1bb8ad0e62c642fc,2021-03-08_16h03.18.139,Impossible2021,2020.1.3,Win32,60,60462d2f8138f40887a79fc4,,,d,1,0.819245,0,23,23,42,1,2,,
,,,,,,,,,,,,,,,,,,,,,,,,images/69possible.bmp,images/69possible.bmp,images/69possible.bmp,,,,,,,,,,,,,,,,images/69possible.bmp,,,,,,,,,,s,possible,216,216,144,72,0,288,216,144,72,0,288,216,144,72,0,288,216,216,144,72,0,288,216,144,72,0,288,216,144,72,0,288,5ec5bd4ce79b5061d7a5f8a6,60464aaa1bb8ad0e62c642fc,2021-03-08_16h03.18.139,Impossible2021,2020.1.3,Win32,60,60462d2f8138f40887a79fc4,,,s,1,0.933035,0,24,24,65,1,3,,
,,,,,,,,,,,,,,,,,,,,,,,,,,,,,,,images/38possible.bmp,images/38possible.bmp,images/38possible.bmp,images/38possible.bmp,images/38possible.bmp,,,,,,,,,,,,images/38possible.bmp,,,,,s,possible,72,72,0,288,216,144,72,0,288,216,144,72,0,288,216,144,72,72,0,288,216,144,72,0,288,216,144,72,0,288,216,144,5ec5bd4ce79b5061d7a5f8a6,60464aaa1bb8ad0e62c642fc,2021-03-08_16h03.18.139,Impossible2021,2020.1.3,Win32,60,60462d2f8138f40887a79fc4,,,s,1,1.07235,0,25,25,108,1,5,,
,,,,,,,,,,,,,,,,,,,,,,,,,,,images/38impossible.bmp,images/38impossible.bmp,images/38impossible.bmp,images/38impossible.bmp,,,,,,,,,,,,,images/38impossible.bmp,,,,,,,,,s,impossible,72,72,0,288,216,144,72,0,288,216,144,72,0,288,216,144,72,72,0,288,216,144,72,0,288,216,144,72,0,288,216,144,5ec5bd4ce79b5061d7a5f8a6,60464aaa1bb8ad0e62c642fc,2021-03-08_16h03.18.139,Impossible2021,2020.1.3,Win32,60,60462d2f8138f40887a79fc4,,,d,0,1.829955,0,26,26,84,1,4,,
,,,,,,,,,,,,,,,,,,,,,,,,,,,images/38impossible.bmp,images/38impossible.bmp,images/38impossible.bmp,images/38impossible.bmp,,,,,,,,,,,,,,,images/38impossible.bmp,,,,,,,d,impossible,72,72,0,288,216,144,72,0,288,216,144,72,0,288,216,144,0,0,288,216,144,72,0,288,216,144,72,0,288,216,144,72,5ec5bd4ce79b5061d7a5f8a6,60464aaa1bb8ad0e62c642fc,2021-03-08_16h03.18.139,Impossible2021,2020.1.3,Win32,60,60462d2f8138f40887a79fc4,,,d,1,1.163315,0,27,27,90,1,4,,
,,,,,,,,,,,,,,,,,,,,,,,,,,,images/44impossible.bmp,images/44impossible.bmp,images/44impossible.bmp,images/44impossible.bmp,,,,,,,,,,,,,,,images/44impossible.bmp,,,,,,,s,impossible,216,216,144,72,0,288,216,144,72,0,288,216,144,72,0,288,216,216,144,72,0,288,216,144,72,0,288,216,144,72,0,288,5ec5bd4ce79b5061d7a5f8a6,60464aaa1bb8ad0e62c642fc,2021-03-08_16h03.18.139,Impossible2021,2020.1.3,Win32,60,60462d2f8138f40887a79fc4,,,s,1,0.881695,0,28,28,86,1,4,,
,,,,,,,,,,,,,,,,,,,,,images/42possible.bmp,,,,,,,,,,,,,,,,images/42possible.bmp,,,,,,,,,,,,,,,s,possible,144,144,72,0,288,216,144,72,0,288,216,144,72,0,288,216,144,144,72,0,288,216,144,72,0,288,216,144,72,0,288,216,5ec5bd4ce79b5061d7a5f8a6,60464aaa1bb8ad0e62c642fc,2021-03-08_16h03.18.139,Impossible2021,2020.1.3,Win32,60,60462d2f8138f40887a79fc4,,,s,1,0.826165,0,29,29,13,1,1,,
,,,,,,,,,,,,,,,,,,,,,,images/44impossible.bmp,images/44impossible.bmp,,,,,,,,,,,,,,,images/44impossible.bmp,,,,,,,,,,,,,,d,impossible,216,216,144,72,0,288,216,144,72,0,288,216,144,72,0,288,144,144,72,0,288,216,144,72,0,288,216,144,72,0,288,216,5ec5bd4ce79b5061d7a5f8a6,60464aaa1bb8ad0e62c642fc,2021-03-08_16h03.18.139,Impossible2021,2020.1.3,Win32,60,60462d2f8138f40887a79fc4,,,d,1,0.633925,0,30,30,44,1,2,,
,,,,,,,,,,,,,,,,,,,,,images/08impossible.bmp,,,,,,,,,,,,,,,,images/08impossible.bmp,,,,,,,,,,,,,,,s,impossible,288,288,216,144,72,0,288,216,144,72,0,288,216,144,72,0,288,288,216,144,72,0,288,216,144,72,0,288,216,144,72,0,5ec5bd4ce79b5061d7a5f8a6,60464aaa1bb8ad0e62c642fc,2021-03-08_16h03.18.139,Impossible2021,2020.1.3,Win32,60,60462d2f8138f40887a79fc4,,,s,1,0.796695,0,31,31,2,1,1,,
,,,,,,,,,,,,,,,,,,,,,images/38possible.bmp,,,,,,,,,,,,,,,,images/38possible.bmp,,,,,,,,,,,,,,,d,possible,72,72,0,288,216,144,72,0,288,216,144,72,0,288,216,144,0,0,288,216,144,72,0,288,216,144,72,0,288,216,144,72,5ec5bd4ce79b5061d7a5f8a6,60464aaa1bb8ad0e62c642fc,2021-03-08_16h03.18.139,Impossible2021,2020.1.3,Win32,60,60462d2f8138f40887a79fc4,,,d,1,0.60982,0,32,32,18,1,1,,
,,,,,,,,,,,,,,,,,,,,,,,,,,,images/55impossible.bmp,images/55impossible.bmp,images/55impossible.bmp,images/55impossible.bmp,,,,,,,,,,,,,,,,images/55impossible.bmp,,,,,,d,impossible,72,72,0,288,216,144,72,0,288,216,144,72,0,288,216,144,0,0,288,216,144,72,0,288,216,144,72,0,288,216,144,72,5ec5bd4ce79b5061d7a5f8a6,60464aaa1bb8ad0e62c642fc,2021-03-08_16h03.18.139,Impossible2021,2020.1.3,Win32,60,60462d2f8138f40887a79fc4,,,s,0,1.090225,0,33,33,93,1,4,,
,,,,,,,,,,,,,,,,,,,,images/22impossible.bmp,,,,,,,,,,,,,,,,images/22impossible.bmp,,,,,,,,,,,,,,,,d,impossible,216,216,144,72,0,288,216,144,72,0,288,216,144,72,0,288,144,144,72,0,288,216,144,72,0,288,216,144,72,0,288,216,5ec5bd4ce79b5061d7a5f8a6,60464aaa1bb8ad0e62c642fc,2021-03-08_16h03.18.139,Impossible2021,2020.1.3,Win32,60,60462d2f8138f40887a79fc4,,,d,1,0.84898,0,34,34,9,1,1,,
,,,,,,,,,,,,,,,,,,,,,images/44possible.bmp,,,,,,,,,,,,,,,,images/44possible.bmp,,,,,,,,,,,,,,,d,possible,216,216,144,72,0,288,216,144,72,0,288,216,144,72,0,288,144,144,72,0,288,216,144,72,0,288,216,144,72,0,288,216,5ec5bd4ce79b5061d7a5f8a6,60464aaa1bb8ad0e62c642fc,2021-03-08_16h03.18.139,Impossible2021,2020.1.3,Win32,60,60462d2f8138f40887a79fc4,,,d,1,0.68749,0,35,35,20,1,1,,
,,,,,,,,,,,,,,,,,,,,,,images/42impossible.bmp,images/42impossible.bmp,,,,,,,,,,,,,,,,images/42impossible.bmp,,,,,,,,,,,,,s,impossible,144,144,72,0,288,216,144,72,0,288,216,144,72,0,288,216,144,144,72,0,288,216,144,72,0,288,216,144,72,0,288,216,5ec5bd4ce79b5061d7a5f8a6,60464aaa1bb8ad0e62c642fc,2021-03-08_16h03.18.139,Impossible2021,2020.1.3,Win32,60,60462d2f8138f40887a79fc4,,,s,1,0.76367,0,36,36,37,1,2,,
,,,,,,,,,,,,,,,,,,,,,,images/55impossible.bmp,images/55impossible.bmp,,,,,,,,,,,,,,,,images/55impossible.bmp,,,,,,,,,,,,,s,impossible,72,72,0,288,216,144,72,0,288,216,144,72,0,288,216,144,72,72,0,288,216,144,72,0,288,216,144,72,0,288,216,144,5ec5bd4ce79b5061d7a5f8a6,60464aaa1bb8ad0e62c642fc,2021-03-08_16h03.18.139,Impossible2021,2020.1.3,Win32,60,60462d2f8138f40887a79fc4,,,d,0,0.666465,0,37,37,39,1,2,,
,,,,,,,,,,,,,,,,,,,,,,,,images/05impossible.bmp,images/05impossible.bmp,images/05impossible.bmp,,,,,,,,,,,,,,,,images/05impossible.bmp,,,,,,,,,,d,impossible,216,216,144,72,0,288,216,144,72,0,288,216,144,72,0,288,144,144,72,0,288,216,144,72,0,288,216,144,72,0,288,216,5ec5bd4ce79b5061d7a5f8a6,60464aaa1bb8ad0e62c642fc,2021-03-08_16h03.18.139,Impossible2021,2020.1.3,Win32,60,60462d2f8138f40887a79fc4,,,d,1,0.71444,0,38,38,55,1,3,,
,,,,,,,,,,,,,,,,,,,,images/44possible.bmp,,,,,,,,,,,,,,,,images/44possible.bmp,,,,,,,,,,,,,,,,s,possible,216,216,144,72,0,288,216,144,72,0,288,216,144,72,0,288,216,216,144,72,0,288,216,144,72,0,288,216,144,72,0,288,5ec5bd4ce79b5061d7a5f8a6,60464aaa1bb8ad0e62c642fc,2021-03-08_16h03.18.139,Impossible2021,2020.1.3,Win32,60,60462d2f8138f40887a79fc4,,,s,1,0.64535,0,39,39,14,1,1,,
,,,,,,,,,,,,,,,,,,,,,,,,,,,images/55impossible.bmp,images/55impossible.bmp,images/55impossible.bmp,images/55impossible.bmp,,,,,,,,,,,,,,images/55impossible.bmp,,,,,,,,s,impossible,72,72,0,288,216,144,72,0,288,216,144,72,0,288,216,144,72,72,0,288,216,144,72,0,288,216,144,72,0,288,216,144,5ec5bd4ce79b5061d7a5f8a6,60464aaa1bb8ad0e62c642fc,2021-03-08_16h03.18.139,Impossible2021,2020.1.3,Win32,60,60462d2f8138f40887a79fc4,,,s,1,1.36845,0,40,40,87,1,4,,
,,,,,,,,,,,,,,,,,,,,,images/55possible.bmp,,,,,,,,,,,,,,,,images/55possible.bmp,,,,,,,,,,,,,,,s,possible,72,72,0,288,216,144,72,0,288,216,144,72,0,288,216,144,72,72,0,288,216,144,72,0,288,216,144,72,0,288,216,144,5ec5bd4ce79b5061d7a5f8a6,60464aaa1bb8ad0e62c642fc,2021-03-08_16h03.18.139,Impossible2021,2020.1.3,Win32,60,60462d2f8138f40887a79fc4,,,s,1,0.7864,0,41,41,15,1,1,,
,,,,,,,,,,,,,,,,,,,,,,,,,,,images/22possible.bmp,images/22possible.bmp,images/22possible.bmp,images/22possible.bmp,,,,,,,,,,,,,,,images/22possible.bmp,,,,,,,d,possible,216,216,144,72,0,288,216,144,72,0,288,216,144,72,0,288,144,144,72,0,288,216,144,72,0,288,216,144,72,0,288,216,5ec5bd4ce79b5061d7a5f8a6,60464aaa1bb8ad0e62c642fc,2021-03-08_16h03.18.139,Impossible2021,2020.1.3,Win32,60,60462d2f8138f40887a79fc4,,,s,0,1.175305,0,42,42,81,1,4,,
,,,,,,,,,,,,,,,,,,,,,,,,,,,,,,,images/69possible.bmp,images/69possible.bmp,images/69possible.bmp,images/69possible.bmp,images/69possible.bmp,,,,,,,,,,,,,,images/69possible.bmp,,,d,possible,216,216,144,72,0,288,216,144,72,0,288,216,144,72,0,288,144,144,72,0,288,216,144,72,0,288,216,144,72,0,288,216,5ec5bd4ce79b5061d7a5f8a6,60464aaa1bb8ad0e62c642fc,2021-03-08_16h03.18.139,Impossible2021,2020.1.3,Win32,60,60462d2f8138f40887a79fc4,,,d,1,1.185575,0,43,43,119,1,5,,
,,,,,,,,,,,,,,,,,,,,,,images/08possible.bmp,images/08possible.bmp,,,,,,,,,,,,,,,images/08possible.bmp,,,,,,,,,,,,,,s,possible,288,288,216,144,72,0,288,216,144,72,0,288,216,144,72,0,288,288,216,144,72,0,288,216,144,72,0,288,216,144,72,0,5ec5bd4ce79b5061d7a5f8a6,60464aaa1bb8ad0e62c642fc,2021-03-08_16h03.18.139,Impossible2021,2020.1.3,Win32,60,60462d2f8138f40887a79fc4,,,s,1,1.01977,0,44,44,26,1,2,,
,,,,,,,,,,,,,,,,,,,,,,,,images/69possible.bmp,images/69possible.bmp,images/69possible.bmp,,,,,,,,,,,,,,images/69possible.bmp,,,,,,,,,,,,d,possible,216,216,144,72,0,288,216,144,72,0,288,216,144,72,0,288,144,144,72,0,288,216,144,72,0,288,216,144,72,0,288,216,5ec5bd4ce79b5061d7a5f8a6,60464aaa1bb8ad0e62c642fc,2021-03-08_16h03.18.139,Impossible2021,2020.1.3,Win32,60,60462d2f8138f40887a79fc4,,,d,1,1.57073,0,45,45,71,1,3,,
,,,,,,,,,,,,,,,,,,,,,,,,,,,,,,,images/25impossible.bmp,images/25impossible.bmp,images/25impossible.bmp,images/25impossible.bmp,images/25impossible.bmp,,,,,,,,,,,,,,,,images/25impossible.bmp,d,impossible,72,72,0,288,216,144,72,0,288,216,144,72,0,288,216,144,0,0,288,216,144,72,0,288,216,144,72,0,288,216,144,72,5ec5bd4ce79b5061d7a5f8a6,60464aaa1bb8ad0e62c642fc,2021-03-08_16h03.18.139,Impossible2021,2020.1.3,Win32,60,60462d2f8138f40887a79fc4,,,s,0,1.997015,0,46,46,107,1,5,,
,,,,,,,,,,,,,,,,,,,,,images/69possible.bmp,,,,,,,,,,,,,,,,images/69possible.bmp,,,,,,,,,,,,,,,s,possible,216,216,144,72,0,288,216,144,72,0,288,216,144,72,0,288,216,216,144,72,0,288,216,144,72,0,288,216,144,72,0,288,5ec5bd4ce79b5061d7a5f8a6,60464aaa1bb8ad0e62c642fc,2021-03-08_16h03.18.139,Impossible2021,2020.1.3,Win32,60,60462d2f8138f40887a79fc4,,,d,0,0.02794,0,47,47,17,1,1,,
,,,,,,,,,,,,,,,,,,,,,,,,images/44possible.bmp,images/44possible.bmp,images/44possible.bmp,,,,,,,,,,,,,,,,images/44possible.bmp,,,,,,,,,,s,possible,216,216,144,72,0,288,216,144,72,0,288,216,144,72,0,288,216,216,144,72,0,288,216,144,72,0,288,216,144,72,0,288,5ec5bd4ce79b5061d7a5f8a6,60464aaa1bb8ad0e62c642fc,2021-03-08_16h03.18.139,Impossible2021,2020.1.3,Win32,60,60462d2f8138f40887a79fc4,,,s,1,1.428385,0,48,48,62,1,3,,
,,,,,,,,,,,,,,,,,,,,,,,,,,,images/08possible.bmp,images/08possible.bmp,images/08possible.bmp,images/08possible.bmp,,,,,,,,,,,,,images/08possible.bmp,,,,,,,,,d,possible,288,288,216,144,72,0,288,216,144,72,0,288,216,144,72,0,216,216,144,72,0,288,216,144,72,0,288,216,144,72,0,288,5ec5bd4ce79b5061d7a5f8a6,60464aaa1bb8ad0e62c642fc,2021-03-08_16h03.18.139,Impossible2021,2020.1.3,Win32,60,60462d2f8138f40887a79fc4,,,s,0,1.162405,0,49,49,80,1,4,,
,,,,,,,,,,,,,,,,,,,,,,,,,,,images/25possible.bmp,images/25possible.bmp,images/25possible.bmp,images/25possible.bmp,,,,,,,,,,,,,,,images/25possible.bmp,,,,,,,s,possible,72,72,0,288,216,144,72,0,288,216,144,72,0,288,216,144,72,72,0,288,216,144,72,0,288,216,144,72,0,288,216,144,5ec5bd4ce79b5061d7a5f8a6,60464aaa1bb8ad0e62c642fc,2021-03-08_16h03.18.139,Impossible2021,2020.1.3,Win32,60,60462d2f8138f40887a79fc4,,,s,1,0.78691,0,50,50,77,1,4,,
,,,,,,,,,,,,,,,,,,,,,images/25impossible.bmp,,,,,,,,,,,,,,,,images/25impossible.bmp,,,,,,,,,,,,,,,d,impossible,72,72,0,288,216,144,72,0,288,216,144,72,0,288,216,144,0,0,288,216,144,72,0,288,216,144,72,0,288,216,144,72,5ec5bd4ce79b5061d7a5f8a6,60464aaa1bb8ad0e62c642fc,2021-03-08_16h03.18.139,Impossible2021,2020.1.3,Win32,60,60462d2f8138f40887a79fc4,,,s,0,0.66939,0,51,51,11,1,1,,
,,,,,,,,,,,,,,,,,,,,,,images/05possible.bmp,images/05possible.bmp,,,,,,,,,,,,,,,,images/05possible.bmp,,,,,,,,,,,,,d,possible,216,216,144,72,0,288,216,144,72,0,288,216,144,72,0,288,144,144,72,0,288,216,144,72,0,288,216,144,72,0,288,216,5ec5bd4ce79b5061d7a5f8a6,60464aaa1bb8ad0e62c642fc,2021-03-08_16h03.18.139,Impossible2021,2020.1.3,Win32,60,60462d2f8138f40887a79fc4,,,d,1,0.730165,0,52,52,31,1,2,,
,,,,,,,,,,,,,,,,,,,,,,,,images/03impossible.bmp,images/03impossible.bmp,images/03impossible.bmp,,,,,,,,,,,,,,,images/03impossible.bmp,,,,,,,,,,,s,impossible,72,72,0,288,216,144,72,0,288,216,144,72,0,288,216,144,72,72,0,288,216,144,72,0,288,216,144,72,0,288,216,144,5ec5bd4ce79b5061d7a5f8a6,60464aaa1bb8ad0e62c642fc,2021-03-08_16h03.18.139,Impossible2021,2020.1.3,Win32,60,60462d2f8138f40887a79fc4,,,s,1,0.895225,0,53,53,48,1,3,,
,,,,,,,,,,,,,,,,,,,,,,,,,,,,,,,images/42possible.bmp,images/42possible.bmp,images/42possible.bmp,images/42possible.bmp,images/42possible.bmp,,,,,,,,,,,,,images/42possible.bmp,,,,s,possible,144,144,72,0,288,216,144,72,0,288,216,144,72,0,288,216,144,144,72,0,288,216,144,72,0,288,216,144,72,0,288,216,5ec5bd4ce79b5061d7a5f8a6,60464aaa1bb8ad0e62c642fc,2021-03-08_16h03.18.139,Impossible2021,2020.1.3,Win32,60,60462d2f8138f40887a79fc4,,,s,1,0.76757,0,54,54,109,1,5,,
,,,,,,,,,,,,,,,,,,,,,images/24impossible.bmp,,,,,,,,,,,,,,,,images/24impossible.bmp,,,,,,,,,,,,,,,s,impossible,0,0,288,216,144,72,0,288,216,144,72,0,288,216,144,72,0,0,288,216,144,72,0,288,216,144,72,0,288,216,144,72,5ec5bd4ce79b5061d7a5f8a6,60464aaa1bb8ad0e62c642fc,2021-03-08_16h03.18.139,Impossible2021,2020.1.3,Win32,60,60462d2f8138f40887a79fc4,,,s,1,0.694955,0,55,55,4,1,1,,
,,,,,,,,,,,,,,,,,,,,,,,,,,,,,,,images/42possible.bmp,images/42possible.bmp,images/42possible.bmp,images/42possible.bmp,images/42possible.bmp,,,,,,,,,,,,,,,images/42possible.bmp,,d,possible,144,144,72,0,288,216,144,72,0,288,216,144,72,0,288,216,72,72,0,288,216,144,72,0,288,216,144,72,0,288,216,144,5ec5bd4ce79b5061d7a5f8a6,60464aaa1bb8ad0e62c642fc,2021-03-08_16h03.18.139,Impossible2021,2020.1.3,Win32,60,60462d2f8138f40887a79fc4,,,d,1,0.654325,0,56,56,115,1,5,,
,,,,,,,,,,,,,,,,,,,,images/69possible.bmp,,,,,,,,,,,,,,,,images/69possible.bmp,,,,,,,,,,,,,,,,d,possible,216,216,144,72,0,288,216,144,72,0,288,216,144,72,0,288,144,144,72,0,288,216,144,72,0,288,216,144,72,0,288,216,5ec5bd4ce79b5061d7a5f8a6,60464aaa1bb8ad0e62c642fc,2021-03-08_16h03.18.139,Impossible2021,2020.1.3,Win32,60,60462d2f8138f40887a79fc4,,,d,1,0.745975,0,57,57,23,1,1,,
,,,,,,,,,,,,,,,,,,,,,,,,,,,,,,,images/22impossible.bmp,images/22impossible.bmp,images/22impossible.bmp,images/22impossible.bmp,images/22impossible.bmp,,,,,,,,,,,,,,images/22impossible.bmp,,,d,impossible,216,216,144,72,0,288,216,144,72,0,288,216,144,72,0,288,144,144,72,0,288,216,144,72,0,288,216,144,72,0,288,216,5ec5bd4ce79b5061d7a5f8a6,60464aaa1bb8ad0e62c642fc,2021-03-08_16h03.18.139,Impossible2021,2020.1.3,Win32,60,60462d2f8138f40887a79fc4,,,d,1,0.9029,0,58,58,105,1,5,,
,,,,,,,,,,,,,,,,,,,,,,,,images/03impossible.bmp,images/03impossible.bmp,images/03impossible.bmp,,,,,,,,,,,,,,,images/03impossible.bmp,,,,,,,,,,,d,impossible,72,72,0,288,216,144,72,0,288,216,144,72,0,288,216,144,0,0,288,216,144,72,0,288,216,144,72,0,288,216,144,72,5ec5bd4ce79b5061d7a5f8a6,60464aaa1bb8ad0e62c642fc,2021-03-08_16h03.18.139,Impossible2021,2020.1.3,Win32,60,60462d2f8138f40887a79fc4,,,s,0,0.905495,0,59,59,54,1,3,,
,,,,,,,,,,,,,,,,,,,,,,,,images/38possible.bmp,images/38possible.bmp,images/38possible.bmp,,,,,,,,,,,,,,,images/38possible.bmp,,,,,,,,,,,s,possible,72,72,0,288,216,144,72,0,288,216,144,72,0,288,216,144,72,72,0,288,216,144,72,0,288,216,144,72,0,288,216,144,5ec5bd4ce79b5061d7a5f8a6,60464aaa1bb8ad0e62c642fc,2021-03-08_16h03.18.139,Impossible2021,2020.1.3,Win32,60,60462d2f8138f40887a79fc4,,,s,1,1.05433,0,60,60,60,1,3,,
,,,,,,,,,,,,,,,,,,,,,,images/69impossible.bmp,images/69impossible.bmp,,,,,,,,,,,,,,,,images/69impossible.bmp,,,,,,,,,,,,,d,impossible,216,216,144,72,0,288,216,144,72,0,288,216,144,72,0,288,144,144,72,0,288,216,144,72,0,288,216,144,72,0,288,216,5ec5bd4ce79b5061d7a5f8a6,60464aaa1bb8ad0e62c642fc,2021-03-08_16h03.18.139,Impossible2021,2020.1.3,Win32,60,60462d2f8138f40887a79fc4,,,d,1,0.934395,0,61,61,47,1,2,,
,,,,,,,,,,,,,,,,,,,,,,,,,,,images/42impossible.bmp,images/42impossible.bmp,images/42impossible.bmp,images/42impossible.bmp,,,,,,,,,,,,,,,,images/42impossible.bmp,,,,,,s,impossible,144,144,72,0,288,216,144,72,0,288,216,144,72,0,288,216,144,144,72,0,288,216,144,72,0,288,216,144,72,0,288,216,5ec5bd4ce79b5061d7a5f8a6,60464aaa1bb8ad0e62c642fc,2021-03-08_16h03.18.139,Impossible2021,2020.1.3,Win32,60,60462d2f8138f40887a79fc4,,,s,1,0.703875,0,62,62,85,1,4,,
,,,,,,,,,,,,,,,,,,,,,,,,images/38possible.bmp,images/38possible.bmp,images/38possible.bmp,,,,,,,,,,,,,,,images/38possible.bmp,,,,,,,,,,,d,possible,72,72,0,288,216,144,72,0,288,216,144,72,0,288,216,144,0,0,288,216,144,72,0,288,216,144,72,0,288,216,144,72,5ec5bd4ce79b5061d7a5f8a6,60464aaa1bb8ad0e62c642fc,2021-03-08_16h03.18.139,Impossible2021,2020.1.3,Win32,60,60462d2f8138f40887a79fc4,,,d,1,1.33702,0,63,63,66,1,3,,
,,,,,,,,,,,,,,,,,,,,,,,,images/55possible.bmp,images/55possible.bmp,images/55possible.bmp,,,,,,,,,,,,,,,images/55possible.bmp,,,,,,,,,,,d,possible,72,72,0,288,216,144,72,0,288,216,144,72,0,288,216,144,0,0,288,216,144,72,0,288,216,144,72,0,288,216,144,72,5ec5bd4ce79b5061d7a5f8a6,60464aaa1bb8ad0e62c642fc,2021-03-08_16h03.18.139,Impossible2021,2020.1.3,Win32,60,60462d2f8138f40887a79fc4,,,s,0,0.897395,0,64,64,69,1,3,,
,,,,,,,,,,,,,,,,,,,,,,,,images/08impossible.bmp,images/08impossible.bmp,images/08impossible.bmp,,,,,,,,,,,,,,,images/08impossible.bmp,,,,,,,,,,,d,impossible,288,288,216,144,72,0,288,216,144,72,0,288,216,144,72,0,216,216,144,72,0,288,216,144,72,0,288,216,144,72,0,288,5ec5bd4ce79b5061d7a5f8a6,60464aaa1bb8ad0e62c642fc,2021-03-08_16h03.18.139,Impossible2021,2020.1.3,Win32,60,60462d2f8138f40887a79fc4,,,d,1,0.727955,0,65,65,56,1,3,,
,,,,,,,,,,,,,,,,,,,,,images/05impossible.bmp,,,,,,,,,,,,,,,,images/05impossible.bmp,,,,,,,,,,,,,,,d,impossible,216,216,144,72,0,288,216,144,72,0,288,216,144,72,0,288,144,144,72,0,288,216,144,72,0,288,216,144,72,0,288,216,5ec5bd4ce79b5061d7a5f8a6,60464aaa1bb8ad0e62c642fc,2021-03-08_16h03.18.139,Impossible2021,2020.1.3,Win32,60,60462d2f8138f40887a79fc4,,,d,1,0.500245,0,66,66,7,1,1,,
,,,,,,,,,,,,,,,,,,,,,,,,,,,images/65impossible.bmp,images/65impossible.bmp,images/65impossible.bmp,images/65impossible.bmp,,,,,,,,,,,,,,,images/65impossible.bmp,,,,,,,d,impossible,144,144,72,0,288,216,144,72,0,288,216,144,72,0,288,216,72,72,0,288,216,144,72,0,288,216,144,72,0,288,216,144,5ec5bd4ce79b5061d7a5f8a6,60464aaa1bb8ad0e62c642fc,2021-03-08_16h03.18.139,Impossible2021,2020.1.3,Win32,60,60462d2f8138f40887a79fc4,,,d,1,0.930515,0,67,67,94,1,4,,
,,,,,,,,,,,,,,,,,,,,,,,,,,,,,,,images/38possible.bmp,images/38possible.bmp,images/38possible.bmp,images/38possible.bmp,images/38possible.bmp,,,,,,,,,,,,,,,,images/38possible.bmp,d,possible,72,72,0,288,216,144,72,0,288,216,144,72,0,288,216,144,0,0,288,216,144,72,0,288,216,144,72,0,288,216,144,72,5ec5bd4ce79b5061d7a5f8a6,60464aaa1bb8ad0e62c642fc,2021-03-08_16h03.18.139,Impossible2021,2020.1.3,Win32,60,60462d2f8138f40887a79fc4,,,d,1,0.76708,0,68,68,114,1,5,,
,,,,,,,,,,,,,,,,,,,,,,,,images/08impossible.bmp,images/08impossible.bmp,images/08impossible.bmp,,,,,,,,,,,,,,,images/08impossible.bmp,,,,,,,,,,,s,impossible,288,288,216,144,72,0,288,216,144,72,0,288,216,144,72,0,288,288,216,144,72,0,288,216,144,72,0,288,216,144,72,0,5ec5bd4ce79b5061d7a5f8a6,60464aaa1bb8ad0e62c642fc,2021-03-08_16h03.18.139,Impossible2021,2020.1.3,Win32,60,60462d2f8138f40887a79fc4,,,s,1,0.80171,0,69,69,50,1,3,,
,,,,,,,,,,,,,,,,,,,,,,,,,,,,,,,images/03impossible.bmp,images/03impossible.bmp,images/03impossible.bmp,images/03impossible.bmp,images/03impossible.bmp,,,,,,,,,,,,,,,,images/03impossible.bmp,d,impossible,72,72,0,288,216,144,72,0,288,216,144,72,0,288,216,144,0,0,288,216,144,72,0,288,216,144,72,0,288,216,144,72,5ec5bd4ce79b5061d7a5f8a6,60464aaa1bb8ad0e62c642fc,2021-03-08_16h03.18.139,Impossible2021,2020.1.3,Win32,60,60462d2f8138f40887a79fc4,,,d,1,1.556915,0,70,70,102,1,5,,
,,,,,,,,,,,,,,,,,,,,,,images/42impossible.bmp,images/42impossible.bmp,,,,,,,,,,,,,,,,images/42impossible.bmp,,,,,,,,,,,,,d,impossible,144,144,72,0,288,216,144,72,0,288,216,144,72,0,288,216,72,72,0,288,216,144,72,0,288,216,144,72,0,288,216,144,5ec5bd4ce79b5061d7a5f8a6,60464aaa1bb8ad0e62c642fc,2021-03-08_16h03.18.139,Impossible2021,2020.1.3,Win32,60,60462d2f8138f40887a79fc4,,,d,1,0.68558,0,71,71,43,1,2,,
,,,,,,,,,,,,,,,,,,,,images/08impossible.bmp,,,,,,,,,,,,,,,,images/08impossible.bmp,,,,,,,,,,,,,,,,d,impossible,288,288,216,144,72,0,288,216,144,72,0,288,216,144,72,0,216,216,144,72,0,288,216,144,72,0,288,216,144,72,0,288,5ec5bd4ce79b5061d7a5f8a6,60464aaa1bb8ad0e62c642fc,2021-03-08_16h03.18.139,Impossible2021,2020.1.3,Win32,60,60462d2f8138f40887a79fc4,,,d,1,0.80278,0,72,72,8,1,1,,
,,,,,,,,,,,,,,,,,,,,,,,,,,,images/69impossible.bmp,images/69impossible.bmp,images/69impossible.bmp,images/69impossible.bmp,,,,,,,,,,,,,,,,images/69impossible.bmp,,,,,,s,impossible,216,216,144,72,0,288,216,144,72,0,288,216,144,72,0,288,216,216,144,72,0,288,216,144,72,0,288,216,144,72,0,288,5ec5bd4ce79b5061d7a5f8a6,60464aaa1bb8ad0e62c642fc,2021-03-08_16h03.18.139,Impossible2021,2020.1.3,Win32,60,60462d2f8138f40887a79fc4,,,s,1,0.68631,0,73,73,89,1,4,,
,,,,,,,,,,,,,,,,,,,,,,images/38impossible.bmp,images/38impossible.bmp,,,,,,,,,,,,,,,images/38impossible.bmp,,,,,,,,,,,,,,s,impossible,72,72,0,288,216,144,72,0,288,216,144,72,0,288,216,144,72,72,0,288,216,144,72,0,288,216,144,72,0,288,216,144,5ec5bd4ce79b5061d7a5f8a6,60464aaa1bb8ad0e62c642fc,2021-03-08_16h03.18.139,Impossible2021,2020.1.3,Win32,60,60462d2f8138f40887a79fc4,,,s,1,0.98616,0,74,74,36,1,2,,
,,,,,,,,,,,,,,,,,,,,,,,,,,,images/08possible.bmp,images/08possible.bmp,images/08possible.bmp,images/08possible.bmp,,,,,,,,,,,,,,,images/08possible.bmp,,,,,,,s,possible,288,288,216,144,72,0,288,216,144,72,0,288,216,144,72,0,288,288,216,144,72,0,288,216,144,72,0,288,216,144,72,0,5ec5bd4ce79b5061d7a5f8a6,60464aaa1bb8ad0e62c642fc,2021-03-08_16h03.18.139,Impossible2021,2020.1.3,Win32,60,60462d2f8138f40887a79fc4,,,s,1,0.83895,0,75,75,74,1,4,,
,,,,,,,,,,,,,,,,,,,,,,images/22possible.bmp,images/22possible.bmp,,,,,,,,,,,,,,,,images/22possible.bmp,,,,,,,,,,,,,d,possible,216,216,144,72,0,288,216,144,72,0,288,216,144,72,0,288,144,144,72,0,288,216,144,72,0,288,216,144,72,0,288,216,5ec5bd4ce79b5061d7a5f8a6,60464aaa1bb8ad0e62c642fc,2021-03-08_16h03.18.139,Impossible2021,2020.1.3,Win32,60,60462d2f8138f40887a79fc4,,,s,0,1.03185,0,76,76,33,1,2,,
,,,,,,,,,,,,,,,,,,,,,,,,images/22impossible.bmp,images/22impossible.bmp,images/22impossible.bmp,,,,,,,,,,,,,,,,images/22impossible.bmp,,,,,,,,,,s,impossible,216,216,144,72,0,288,216,144,72,0,288,216,144,72,0,288,216,216,144,72,0,288,216,144,72,0,288,216,144,72,0,288,5ec5bd4ce79b5061d7a5f8a6,60464aaa1bb8ad0e62c642fc,2021-03-08_16h03.18.139,Impossible2021,2020.1.3,Win32,60,60462d2f8138f40887a79fc4,,,d,0,1.42192,0,77,77,51,1,3,,
,,,,,,,,,,,,,,,,,,,,,,,,images/24impossible.bmp,images/24impossible.bmp,images/24impossible.bmp,,,,,,,,,,,,,,,images/24impossible.bmp,,,,,,,,,,,d,impossible,0,0,288,216,144,72,0,288,216,144,72,0,288,216,144,72,288,288,216,144,72,0,288,216,144,72,0,288,216,144,72,0,5ec5bd4ce79b5061d7a5f8a6,60464aaa1bb8ad0e62c642fc,2021-03-08_16h03.18.139,Impossible2021,2020.1.3,Win32,60,60462d2f8138f40887a79fc4,,,d,1,0.736745,0,78,78,58,1,3,,
,,,,,,,,,,,,,,,,,,,,,,images/24possible.bmp,images/24possible.bmp,,,,,,,,,,,,,,,images/24possible.bmp,,,,,,,,,,,,,,s,possible,0,0,288,216,144,72,0,288,216,144,72,0,288,216,144,72,0,0,288,216,144,72,0,288,216,144,72,0,288,216,144,72,5ec5bd4ce79b5061d7a5f8a6,60464aaa1bb8ad0e62c642fc,2021-03-08_16h03.18.139,Impossible2021,2020.1.3,Win32,60,60462d2f8138f40887a79fc4,,,s,1,0.61326,0,79,79,28,1,2,,
,,,,,,,,,,,,,,,,,,,,images/24impossible.bmp,,,,,,,,,,,,,,,,images/24impossible.bmp,,,,,,,,,,,,,,,,d,impossible,0,0,288,216,144,72,0,288,216,144,72,0,288,216,144,72,288,288,216,144,72,0,288,216,144,72,0,288,216,144,72,0,5ec5bd4ce79b5061d7a5f8a6,60464aaa1bb8ad0e62c642fc,2021-03-08_16h03.18.139,Impossible2021,2020.1.3,Win32,60,60462d2f8138f40887a79fc4,,,d,1,0.718695,0,80,80,10,1,1,,
,,,,,,,,,,,,,,,,,,,,,,images/44impossible.bmp,images/44impossible.bmp,,,,,,,,,,,,,,,images/44impossible.bmp,,,,,,,,,,,,,,s,impossible,216,216,144,72,0,288,216,144,72,0,288,216,144,72,0,288,216,216,144,72,0,288,216,144,72,0,288,216,144,72,0,288,5ec5bd4ce79b5061d7a5f8a6,60464aaa1bb8ad0e62c642fc,2021-03-08_16h03.18.139,Impossible2021,2020.1.3,Win32,60,60462d2f8138f40887a79fc4,,,s,1,0.676525,0,81,81,38,1,2,,
,,,,,,,,,,,,,,,,,,,,,,,,,,,images/05possible.bmp,images/05possible.bmp,images/05possible.bmp,images/05possible.bmp,,,,,,,,,,,,,,,images/05possible.bmp,,,,,,,d,possible,216,216,144,72,0,288,216,144,72,0,288,216,144,72,0,288,144,144,72,0,288,216,144,72,0,288,216,144,72,0,288,216,5ec5bd4ce79b5061d7a5f8a6,60464aaa1bb8ad0e62c642fc,2021-03-08_16h03.18.139,Impossible2021,2020.1.3,Win32,60,60462d2f8138f40887a79fc4,,,d,1,0.68677,0,82,82,79,1,4,,
,,,,,,,,,,,,,,,,,,,,,images/65possible.bmp,,,,,,,,,,,,,,,,images/65possible.bmp,,,,,,,,,,,,,,,d,possible,144,144,72,0,288,216,144,72,0,288,216,144,72,0,288,216,72,72,0,288,216,144,72,0,288,216,144,72,0,288,216,144,5ec5bd4ce79b5061d7a5f8a6,60464aaa1bb8ad0e62c642fc,2021-03-08_16h03.18.139,Impossible2021,2020.1.3,Win32,60,60462d2f8138f40887a79fc4,,,d,1,0.69672,0,83,83,22,1,1,,
,,,,,,,,,,,,,,,,,,,,,,,,,,,,,,,images/44possible.bmp,images/44possible.bmp,images/44possible.bmp,images/44possible.bmp,images/44possible.bmp,,,,,,,,,,,,,,images/44possible.bmp,,,d,possible,216,216,144,72,0,288,216,144,72,0,288,216,144,72,0,288,144,144,72,0,288,216,144,72,0,288,216,144,72,0,288,216,5ec5bd4ce79b5061d7a5f8a6,60464aaa1bb8ad0e62c642fc,2021-03-08_16h03.18.139,Impossible2021,2020.1.3,Win32,60,60462d2f8138f40887a79fc4,,,d,1,0.603295,0,84,84,116,1,5,,
,,,,,,,,,,,,,,,,,,,,,,,,images/25impossible.bmp,images/25impossible.bmp,images/25impossible.bmp,,,,,,,,,,,,,,images/25impossible.bmp,,,,,,,,,,,,s,impossible,72,72,0,288,216,144,72,0,288,216,144,72,0,288,216,144,72,72,0,288,216,144,72,0,288,216,144,72,0,288,216,144,5ec5bd4ce79b5061d7a5f8a6,60464aaa1bb8ad0e62c642fc,2021-03-08_16h03.18.139,Impossible2021,2020.1.3,Win32,60,60462d2f8138f40887a79fc4,,,s,1,1.112735,0,85,85,53,1,3,,
,,,,,,,,,,,,,,,,,,,,,,images/03possible.bmp,images/03possible.bmp,,,,,,,,,,,,,,,images/03possible.bmp,,,,,,,,,,,,,,s,possible,72,72,0,288,216,144,72,0,288,216,144,72,0,288,216,144,72,72,0,288,216,144,72,0,288,216,144,72,0,288,216,144,5ec5bd4ce79b5061d7a5f8a6,60464aaa1bb8ad0e62c642fc,2021-03-08_16h03.18.139,Impossible2021,2020.1.3,Win32,60,60462d2f8138f40887a79fc4,,,s,1,0.921295,0,86,86,24,1,2,,
,,,,,,,,,,,,,,,,,,,,,,,,,,,images/05possible.bmp,images/05possible.bmp,images/05possible.bmp,images/05possible.bmp,,,,,,,,,,,,,,,,images/05possible.bmp,,,,,,s,possible,216,216,144,72,0,288,216,144,72,0,288,216,144,72,0,288,216,216,144,72,0,288,216,144,72,0,288,216,144,72,0,288,5ec5bd4ce79b5061d7a5f8a6,60464aaa1bb8ad0e62c642fc,2021-03-08_16h03.18.139,Impossible2021,2020.1.3,Win32,60,60462d2f8138f40887a79fc4,,,d,0,0.88725,0,87,87,73,1,4,,
,,,,,,,,,,,,,,,,,,,,,,images/25possible.bmp,images/25possible.bmp,,,,,,,,,,,,,,,,images/25possible.bmp,,,,,,,,,,,,,d,possible,72,72,0,288,216,144,72,0,288,216,144,72,0,288,216,144,0,0,288,216,144,72,0,288,216,144,72,0,288,216,144,72,5ec5bd4ce79b5061d7a5f8a6,60464aaa1bb8ad0e62c642fc,2021-03-08_16h03.18.139,Impossible2021,2020.1.3,Win32,60,60462d2f8138f40887a79fc4,,,s,0,1.50421,0,88,88,35,1,2,,
,,,,,,,,,,,,,,,,,,,,,,,,,,,images/65impossible.bmp,images/65impossible.bmp,images/65impossible.bmp,images/65impossible.bmp,,,,,,,,,,,,,,,images/65impossible.bmp,,,,,,,s,impossible,144,144,72,0,288,216,144,72,0,288,216,144,72,0,288,216,144,144,72,0,288,216,144,72,0,288,216,144,72,0,288,216,5ec5bd4ce79b5061d7a5f8a6,60464aaa1bb8ad0e62c642fc,2021-03-08_16h03.18.139,Impossible2021,2020.1.3,Win32,60,60462d2f8138f40887a79fc4,,,s,1,0.786535,0,89,89,88,1,4,,
,,,,,,,,,,,,,,,,,,,,,,images/08possible.bmp,images/08possible.bmp,,,,,,,,,,,,,,,images/08possible.bmp,,,,,,,,,,,,,,d,possible,288,288,216,144,72,0,288,216,144,72,0,288,216,144,72,0,216,216,144,72,0,288,216,144,72,0,288,216,144,72,0,288,5ec5bd4ce79b5061d7a5f8a6,60464aaa1bb8ad0e62c642fc,2021-03-08_16h03.18.139,Impossible2021,2020.1.3,Win32,60,60462d2f8138f40887a79fc4,,,d,1,0.644915,0,90,90,32,1,2,,
,,,,,,,,,,,,,,,,,,,,,,,,,,,,,,,images/22impossible.bmp,images/22impossible.bmp,images/22impossible.bmp,images/22impossible.bmp,images/22impossible.bmp,,,,,,,,,,,,,images/22impossible.bmp,,,,s,impossible,216,216,144,72,0,288,216,144,72,0,288,216,144,72,0,288,216,216,144,72,0,288,216,144,72,0,288,216,144,72,0,288,5ec5bd4ce79b5061d7a5f8a6,60464aaa1bb8ad0e62c642fc,2021-03-08_16h03.18.139,Impossible2021,2020.1.3,Win32,60,60462d2f8138f40887a79fc4,,,s,1,1.044805,0,91,91,99,1,5,,
,,,,,,,,,,,,,,,,,,,,,,,,,,,,,,,images/08impossible.bmp,images/08impossible.bmp,images/08impossible.bmp,images/08impossible.bmp,images/08impossible.bmp,,,,,,,,,,,,,images/08impossible.bmp,,,,d,impossible,288,288,216,144,72,0,288,216,144,72,0,288,216,144,72,0,216,216,144,72,0,288,216,144,72,0,288,216,144,72,0,288,5ec5bd4ce79b5061d7a5f8a6,60464aaa1bb8ad0e62c642fc,2021-03-08_16h03.18.139,Impossible2021,2020.1.3,Win32,60,60462d2f8138f40887a79fc4,,,s,0,0.72333,0,92,92,104,1,5,,
,,,,,,,,,,,,,,,,,,,,,,,,,,,images/44impossible.bmp,images/44impossible.bmp,images/44impossible.bmp,images/44impossible.bmp,,,,,,,,,,,,,images/44impossible.bmp,,,,,,,,,d,impossible,216,216,144,72,0,288,216,144,72,0,288,216,144,72,0,288,144,144,72,0,288,216,144,72,0,288,216,144,72,0,288,216,5ec5bd4ce79b5061d7a5f8a6,60464aaa1bb8ad0e62c642fc,2021-03-08_16h03.18.139,Impossible2021,2020.1.3,Win32,60,60462d2f8138f40887a79fc4,,,d,1,0.92625,0,93,93,92,1,4,,
,,,,,,,,,,,,,,,,,,,,,,,,,,,,,,,images/69possible.bmp,images/69possible.bmp,images/69possible.bmp,images/69possible.bmp,images/69possible.bmp,,,,,,,,,,,,,,images/69possible.bmp,,,s,possible,216,216,144,72,0,288,216,144,72,0,288,216,144,72,0,288,216,216,144,72,0,288,216,144,72,0,288,216,144,72,0,288,5ec5bd4ce79b5061d7a5f8a6,60464aaa1bb8ad0e62c642fc,2021-03-08_16h03.18.139,Impossible2021,2020.1.3,Win32,60,60462d2f8138f40887a79fc4,,,s,1,1.756965,0,94,94,113,1,5,,
,,,,,,,,,,,,,,,,,,,,,,,,,,,images/42impossible.bmp,images/42impossible.bmp,images/42impossible.bmp,images/42impossible.bmp,,,,,,,,,,,,,,,,images/42impossible.bmp,,,,,,d,impossible,144,144,72,0,288,216,144,72,0,288,216,144,72,0,288,216,72,72,0,288,216,144,72,0,288,216,144,72,0,288,216,144,5ec5bd4ce79b5061d7a5f8a6,60464aaa1bb8ad0e62c642fc,2021-03-08_16h03.18.139,Impossible2021,2020.1.3,Win32,60,60462d2f8138f40887a79fc4,,,s,0,1.037865,0,95,95,91,1,4,,
,,,,,,,,,,,,,,,,,,,,,,,,,,,,,,,images/55possible.bmp,images/55possible.bmp,images/55possible.bmp,images/55possible.bmp,images/55possible.bmp,,,,,,,,,,,,images/55possible.bmp,,,,,d,possible,72,72,0,288,216,144,72,0,288,216,144,72,0,288,216,144,0,0,288,216,144,72,0,288,216,144,72,0,288,216,144,72,5ec5bd4ce79b5061d7a5f8a6,60464aaa1bb8ad0e62c642fc,2021-03-08_16h03.18.139,Impossible2021,2020.1.3,Win32,60,60462d2f8138f40887a79fc4,,,s,0,1.255655,0,96,96,117,1,5,,
,,,,,,,,,,,,,,,,,,,,,,,,,,,images/25possible.bmp,images/25possible.bmp,images/25possible.bmp,images/25possible.bmp,,,,,,,,,,,,,,images/25possible.bmp,,,,,,,,d,possible,72,72,0,288,216,144,72,0,288,216,144,72,0,288,216,144,0,0,288,216,144,72,0,288,216,144,72,0,288,216,144,72,5ec5bd4ce79b5061d7a5f8a6,60464aaa1bb8ad0e62c642fc,2021-03-08_16h03.18.139,Impossible2021,2020.1.3,Win32,60,60462d2f8138f40887a79fc4,,,d,1,0.653505,0,97,97,83,1,4,,
,,,,,,,,,,,,,,,,,,,,,,,,images/05impossible.bmp,images/05impossible.bmp,images/05impossible.bmp,,,,,,,,,,,,,,,,images/05impossible.bmp,,,,,,,,,,s,impossible,216,216,144,72,0,288,216,144,72,0,288,216,144,72,0,288,216,216,144,72,0,288,216,144,72,0,288,216,144,72,0,288,5ec5bd4ce79b5061d7a5f8a6,60464aaa1bb8ad0e62c642fc,2021-03-08_16h03.18.139,Impossible2021,2020.1.3,Win32,60,60462d2f8138f40887a79fc4,,,s,1,0.547135,0,98,98,49,1,3,,
,,,,,,,,,,,,,,,,,,,,,,,,,,,,,,,images/24impossible.bmp,images/24impossible.bmp,images/24impossible.bmp,images/24impossible.bmp,images/24impossible.bmp,,,,,,,,,,,,,,,,images/24impossible.bmp,d,impossible,0,0,288,216,144,72,0,288,216,144,72,0,288,216,144,72,288,288,216,144,72,0,288,216,144,72,0,288,216,144,72,0,5ec5bd4ce79b5061d7a5f8a6,60464aaa1bb8ad0e62c642fc,2021-03-08_16h03.18.139,Impossible2021,2020.1.3,Win32,60,60462d2f8138f40887a79fc4,,,d,1,0.806145,0,99,99,106,1,5,,
,,,,,,,,,,,,,,,,,,,,,,images/65impossible.bmp,images/65impossible.bmp,,,,,,,,,,,,,,,images/65impossible.bmp,,,,,,,,,,,,,,s,impossible,144,144,72,0,288,216,144,72,0,288,216,144,72,0,288,216,144,144,72,0,288,216,144,72,0,288,216,144,72,0,288,216,5ec5bd4ce79b5061d7a5f8a6,60464aaa1bb8ad0e62c642fc,2021-03-08_16h03.18.139,Impossible2021,2020.1.3,Win32,60,60462d2f8138f40887a79fc4,,,s,1,0.634035,0,100,100,40,1,2,,
,,,,,,,,,,,,,,,,,,,,,,images/22possible.bmp,images/22possible.bmp,,,,,,,,,,,,,,,,images/22possible.bmp,,,,,,,,,,,,,s,possible,216,216,144,72,0,288,216,144,72,0,288,216,144,72,0,288,216,216,144,72,0,288,216,144,72,0,288,216,144,72,0,288,5ec5bd4ce79b5061d7a5f8a6,60464aaa1bb8ad0e62c642fc,2021-03-08_16h03.18.139,Impossible2021,2020.1.3,Win32,60,60462d2f8138f40887a79fc4,,,s,1,2.933245,0,101,101,27,1,2,,
,,,,,,,,,,,,,,,,,,,,,,,,images/65possible.bmp,images/65possible.bmp,images/65possible.bmp,,,,,,,,,,,,,,images/65possible.bmp,,,,,,,,,,,,d,possible,144,144,72,0,288,216,144,72,0,288,216,144,72,0,288,216,72,72,0,288,216,144,72,0,288,216,144,72,0,288,216,144,5ec5bd4ce79b5061d7a5f8a6,60464aaa1bb8ad0e62c642fc,2021-03-08_16h03.18.139,Impossible2021,2020.1.3,Win32,60,60462d2f8138f40887a79fc4,,,s,0,0.477625,0,102,102,70,1,3,,
,,,,,,,,,,,,,,,,,,,,,,,,,,,images/03possible.bmp,images/03possible.bmp,images/03possible.bmp,images/03possible.bmp,,,,,,,,,,,,,,,,images/03possible.bmp,,,,,,d,possible,72,72,0,288,216,144,72,0,288,216,144,72,0,288,216,144,0,0,288,216,144,72,0,288,216,144,72,0,288,216,144,72,5ec5bd4ce79b5061d7a5f8a6,60464aaa1bb8ad0e62c642fc,2021-03-08_16h03.18.139,Impossible2021,2020.1.3,Win32,60,60462d2f8138f40887a79fc4,,,s,0,1.012355,0,103,103,78,1,4,,
,,,,,,,,,,,,,,,,,,,,,images/03impossible.bmp,,,,,,,,,,,,,,,,images/03impossible.bmp,,,,,,,,,,,,,,,d,impossible,72,72,0,288,216,144,72,0,288,216,144,72,0,288,216,144,0,0,288,216,144,72,0,288,216,144,72,0,288,216,144,72,5ec5bd4ce79b5061d7a5f8a6,60464aaa1bb8ad0e62c642fc,2021-03-08_16h03.18.139,Impossible2021,2020.1.3,Win32,60,60462d2f8138f40887a79fc4,,,d,1,0.49291,0,104,104,6,1,1,,
,,,,,,,,,,,,,,,,,,,,,,,,images/55possible.bmp,images/55possible.bmp,images/55possible.bmp,,,,,,,,,,,,,,images/55possible.bmp,,,,,,,,,,,,s,possible,72,72,0,288,216,144,72,0,288,216,144,72,0,288,216,144,72,72,0,288,216,144,72,0,288,216,144,72,0,288,216,144,5ec5bd4ce79b5061d7a5f8a6,60464aaa1bb8ad0e62c642fc,2021-03-08_16h03.18.139,Impossible2021,2020.1.3,Win32,60,60462d2f8138f40887a79fc4,,,s,1,0.80363,0,105,105,63,1,3,,
,,,,,,,,,,,,,,,,,,,,,,,,images/42possible.bmp,images/42possible.bmp,images/42possible.bmp,,,,,,,,,,,,,,images/42possible.bmp,,,,,,,,,,,,d,possible,144,144,72,0,288,216,144,72,0,288,216,144,72,0,288,216,72,72,0,288,216,144,72,0,288,216,144,72,0,288,216,144,5ec5bd4ce79b5061d7a5f8a6,60464aaa1bb8ad0e62c642fc,2021-03-08_16h03.18.139,Impossible2021,2020.1.3,Win32,60,60462d2f8138f40887a79fc4,,,s,0,0.869915,0,106,106,67,1,3,,
,,,,,,,,,,,,,,,,,,,,images/25impossible.bmp,,,,,,,,,,,,,,,,images/25impossible.bmp,,,,,,,,,,,,,,,,s,impossible,72,72,0,288,216,144,72,0,288,216,144,72,0,288,216,144,72,72,0,288,216,144,72,0,288,216,144,72,0,288,216,144,5ec5bd4ce79b5061d7a5f8a6,60464aaa1bb8ad0e62c642fc,2021-03-08_16h03.18.139,Impossible2021,2020.1.3,Win32,60,60462d2f8138f40887a79fc4,,,s,1,0.876955,0,107,107,5,1,1,,
,,,,,,,,,,,,,,,,,,,,,,images/65impossible.bmp,images/65impossible.bmp,,,,,,,,,,,,,,,images/65impossible.bmp,,,,,,,,,,,,,,d,impossible,144,144,72,0,288,216,144,72,0,288,216,144,72,0,288,216,72,72,0,288,216,144,72,0,288,216,144,72,0,288,216,144,5ec5bd4ce79b5061d7a5f8a6,60464aaa1bb8ad0e62c642fc,2021-03-08_16h03.18.139,Impossible2021,2020.1.3,Win32,60,60462d2f8138f40887a79fc4,,,s,0,3.472385,0,108,108,46,1,2,,
,,,,,,,,,,,,,,,,,,,,images/42possible.bmp,,,,,,,,,,,,,,,,images/42possible.bmp,,,,,,,,,,,,,,,,d,possible,144,144,72,0,288,216,144,72,0,288,216,144,72,0,288,216,72,72,0,288,216,144,72,0,288,216,144,72,0,288,216,144,5ec5bd4ce79b5061d7a5f8a6,60464aaa1bb8ad0e62c642fc,2021-03-08_16h03.18.139,Impossible2021,2020.1.3,Win32,60,60462d2f8138f40887a79fc4,,,d,1,0.59097,0,109,109,19,1,1,,
,,,,,,,,,,,,,,,,,,,,,,,,,,,,,,,images/65possible.bmp,images/65possible.bmp,images/65possible.bmp,images/65possible.bmp,images/65possible.bmp,,,,,,,,,,,,,images/65possible.bmp,,,,d,possible,144,144,72,0,288,216,144,72,0,288,216,144,72,0,288,216,72,72,0,288,216,144,72,0,288,216,144,72,0,288,216,144,5ec5bd4ce79b5061d7a5f8a6,60464aaa1bb8ad0e62c642fc,2021-03-08_16h03.18.139,Impossible2021,2020.1.3,Win32,60,60462d2f8138f40887a79fc4,,,d,1,2.504885,0,110,110,118,1,5,,
,,,,,,,,,,,,,,,,,,,,images/05impossible.bmp,,,,,,,,,,,,,,,,images/05impossible.bmp,,,,,,,,,,,,,,,,s,impossible,216,216,144,72,0,288,216,144,72,0,288,216,144,72,0,288,216,216,144,72,0,288,216,144,72,0,288,216,144,72,0,288,5ec5bd4ce79b5061d7a5f8a6,60464aaa1bb8ad0e62c642fc,2021-03-08_16h03.18.139,Impossible2021,2020.1.3,Win32,60,60462d2f8138f40887a79fc4,,,s,1,0.93771,0,111,111,1,1,1,,
,,,,,,,,,,,,,,,,,,,,,,images/05possible.bmp,images/05possible.bmp,,,,,,,,,,,,,,,,images/05possible.bmp,,,,,,,,,,,,,s,possible,216,216,144,72,0,288,216,144,72,0,288,216,144,72,0,288,216,216,144,72,0,288,216,144,72,0,288,216,144,72,0,288,5ec5bd4ce79b5061d7a5f8a6,60464aaa1bb8ad0e62c642fc,2021-03-08_16h03.18.139,Impossible2021,2020.1.3,Win32,60,60462d2f8138f40887a79fc4,,,s,1,0.870745,0,112,112,25,1,2,,
,,,,,,,,,,,,,,,,,,,,,,,,images/42possible.bmp,images/42possible.bmp,images/42possible.bmp,,,,,,,,,,,,,,,,images/42possible.bmp,,,,,,,,,,s,possible,144,144,72,0,288,216,144,72,0,288,216,144,72,0,288,216,144,144,72,0,288,216,144,72,0,288,216,144,72,0,288,216,5ec5bd4ce79b5061d7a5f8a6,60464aaa1bb8ad0e62c642fc,2021-03-08_16h03.18.139,Impossible2021,2020.1.3,Win32,60,60462d2f8138f40887a79fc4,,,s,1,0.764675,0,113,113,61,1,3,,
,,,,,,,,,,,,,,,,,,,,,,,,images/22impossible.bmp,images/22impossible.bmp,images/22impossible.bmp,,,,,,,,,,,,,,,,images/22impossible.bmp,,,,,,,,,,d,impossible,216,216,144,72,0,288,216,144,72,0,288,216,144,72,0,288,144,144,72,0,288,216,144,72,0,288,216,144,72,0,288,216,5ec5bd4ce79b5061d7a5f8a6,60464aaa1bb8ad0e62c642fc,2021-03-08_16h03.18.139,Impossible2021,2020.1.3,Win32,60,60462d2f8138f40887a79fc4,,,d,1,1.15436,0,114,114,57,1,3,,
,,,,,,,,,,,,,,,,,,,,,,,,,,,,,,,images/24impossible.bmp,images/24impossible.bmp,images/24impossible.bmp,images/24impossible.bmp,images/24impossible.bmp,,,,,,,,,,,,images/24impossible.bmp,,,,,s,impossible,0,0,288,216,144,72,0,288,216,144,72,0,288,216,144,72,0,0,288,216,144,72,0,288,216,144,72,0,288,216,144,72,5ec5bd4ce79b5061d7a5f8a6,60464aaa1bb8ad0e62c642fc,2021-03-08_16h03.18.139,Impossible2021,2020.1.3,Win32,60,60462d2f8138f40887a79fc4,,,s,1,0.577945,0,115,115,100,1,5,,
,,,,,,,,,,,,,,,,,,,,,,,,,,,,,,,images/25impossible.bmp,images/25impossible.bmp,images/25impossible.bmp,images/25impossible.bmp,images/25impossible.bmp,,,,,,,,,,,,,images/25impossible.bmp,,,,s,impossible,72,72,0,288,216,144,72,0,288,216,144,72,0,288,216,144,72,72,0,288,216,144,72,0,288,216,144,72,0,288,216,144,5ec5bd4ce79b5061d7a5f8a6,60464aaa1bb8ad0e62c642fc,2021-03-08_16h03.18.139,Impossible2021,2020.1.3,Win32,60,60462d2f8138f40887a79fc4,,,d,0,0.38522,0,116,116,101,1,5,,
,,,,,,,,,,,,,,,,,,,,,,,,,,,,,,,images/44possible.bmp,images/44possible.bmp,images/44possible.bmp,images/44possible.bmp,images/44possible.bmp,,,,,,,,,,,,,,images/44possible.bmp,,,s,possible,216,216,144,72,0,288,216,144,72,0,288,216,144,72,0,288,216,216,144,72,0,288,216,144,72,0,288,216,144,72,0,288,5ec5bd4ce79b5061d7a5f8a6,60464aaa1bb8ad0e62c642fc,2021-03-08_16h03.18.139,Impossible2021,2020.1.3,Win32,60,60462d2f8138f40887a79fc4,,,d,0,0.49713,0,117,117,110,1,5,,
,,,,,,,,,,,,,,,,,,,,,,,,,,,,,,,images/08impossible.bmp,images/08impossible.bmp,images/08impossible.bmp,images/08impossible.bmp,images/08impossible.bmp,,,,,,,,,,,,,,,,images/08impossible.bmp,s,impossible,288,288,216,144,72,0,288,216,144,72,0,288,216,144,72,0,288,288,216,144,72,0,288,216,144,72,0,288,216,144,72,0,5ec5bd4ce79b5061d7a5f8a6,60464aaa1bb8ad0e62c642fc,2021-03-08_16h03.18.139,Impossible2021,2020.1.3,Win32,60,60462d2f8138f40887a79fc4,,,d,0,1.240615,0,118,118,98,1,5,,
,,,,,,,,,,,,,,,,,,,,,,,,images/24impossible.bmp,images/24impossible.bmp,images/24impossible.bmp,,,,,,,,,,,,,,,images/24impossible.bmp,,,,,,,,,,,s,impossible,0,0,288,216,144,72,0,288,216,144,72,0,288,216,144,72,0,0,288,216,144,72,0,288,216,144,72,0,288,216,144,72,5ec5bd4ce79b5061d7a5f8a6,60464aaa1bb8ad0e62c642fc,2021-03-08_16h03.18.139,Impossible2021,2020.1.3,Win32,60,60462d2f8138f40887a79fc4,,,s,1,0.581695,0,119,119,52,1,3,,
,,,,,,,,,,,,,,,,,,,,,,,,,,,,,,,,,,,,,,,,,,,,,,,,,,,,,,,,,,,,,,,,,,,,,,,,,,,,,,,,,,,,,,5ec5bd4ce79b5061d7a5f8a6,60464aaa1bb8ad0e62c642fc,2021-03-08_16h03.18.139,Impossible2021,2020.1.3,Win32,60,60462d2f8138f40887a79fc4,,,,,,,,,,,,k,4.18191
