consent_key.keys,consent_key.rt,intro_key_2.keys,intro_key_2.rt,key_resp_4.keys,key_resp_4.rt,key_resp_5.keys,key_resp_5.rt,key_resp_6.keys,key_resp_6.rt,key_resp_7.keys,key_resp_7.rt,keyTraining.keys,keyTraining.corr,keyTraining.rt,practiceloop.thisRepN,practiceloop.thisTrialN,practiceloop.thisN,practiceloop.thisIndex,practiceloop.ran,s11,s1_1,s12,s22,s13,s23,s33,s14,s24,s34,s44,s15,s25,s35,s45,s55,t11,t1_1,t12,t22,t13,t23,t33,t14,t24,t34,t44,t15,t25,t35,t45,t55,corrans,study,o11,o1_1,o12,o22,o13,o23,o33,o14,o24,o34,o44,o15,o25,o35,o45,o55,ot11,ot1_1,ot12,ot22,ot13,ot23,ot33,ot14,ot24,ot34,ot44,ot15,ot25,ot35,ot45,ot55,participant,session,date,expName,psychopyVersion,OS,frameRate,STUDY_ID,key_resp_2.keys,key_resp_2.rt,key_resp.keys,key_resp.corr,key_resp.rt,testloop.thisRepN,testloop.thisTrialN,testloop.thisN,testloop.thisIndex,testloop.ran,setsize,key_resp_3.keys,key_resp_3.rt
y,5.15568,space,21.940865,space,4.55221,s,5.726575,d,1.275875,space,4.311165,s,1,0.97391,0,0,0,0,1,images/06impossible.bmp,,,,,,,,,,,,,,,,images/06impossible.bmp,,,,,,,,,,,,,,,,s,,0,0,288,216,144,72,0,288,216,144,72,0,288,216,144,72,0,0,288,216,144,72,0,288,216,144,72,0,288,216,144,72,5f639b571cb2830a931bc80e,60464aa8c5672f0eaf45dbc0,2021-03-08_16h04.37.448,Impossible2021,2020.1.3,Win32,60,60462d2f8138f40887a79fc4,,,,,,,,,,,,,
,,,,,,,,,,,,s,0,0.450795,0,1,1,1,1,,images/06impossible.bmp,,,,,,,,,,,,,,,,images/06impossible.bmp,,,,,,,,,,,,,,,d,,216,216,144,72,0,288,216,144,72,0,288,216,144,72,0,288,144,144,72,0,288,216,144,72,0,288,216,144,72,0,288,216,5f639b571cb2830a931bc80e,60464aa8c5672f0eaf45dbc0,2021-03-08_16h04.37.448,Impossible2021,2020.1.3,Win32,60,60462d2f8138f40887a79fc4,,,,,,,,,,,,,
,,,,,,,,,,,,d,0,0.788455,0,2,2,2,1,,,images/06impossible.bmp,images/06impossible.bmp,,,,,,,,,,,,,,,,images/06impossible.bmp,,,,,,,,,,,,,s,,288,288,216,144,72,0,288,216,144,72,0,288,216,144,72,0,288,288,216,144,72,0,288,216,144,72,0,288,216,144,72,0,5f639b571cb2830a931bc80e,60464aa8c5672f0eaf45dbc0,2021-03-08_16h04.37.448,Impossible2021,2020.1.3,Win32,60,60462d2f8138f40887a79fc4,,,,,,,,,,,,,
,,,,,,,,,,,,d,1,1.0192,0,3,3,3,1,,,images/06impossible.bmp,images/06impossible.bmp,,,,,,,,,,,,,,,images/06impossible.bmp,,,,,,,,,,,,,,d,,144,144,72,0,288,216,144,72,0,288,216,144,72,0,288,216,72,72,0,288,216,144,72,0,288,216,144,72,0,288,216,144,5f639b571cb2830a931bc80e,60464aa8c5672f0eaf45dbc0,2021-03-08_16h04.37.448,Impossible2021,2020.1.3,Win32,60,60462d2f8138f40887a79fc4,,,,,,,,,,,,,
,,,,,,,,,,,,d,0,1.85696,0,4,4,4,1,,,,,images/06impossible.bmp,images/06impossible.bmp,images/06impossible.bmp,,,,,,,,,,,,,,images/06impossible.bmp,,,,,,,,,,,,s,,216,216,144,72,0,288,216,144,72,0,288,216,144,72,0,288,216,216,144,72,0,288,216,144,72,0,288,216,144,72,0,288,5f639b571cb2830a931bc80e,60464aa8c5672f0eaf45dbc0,2021-03-08_16h04.37.448,Impossible2021,2020.1.3,Win32,60,60462d2f8138f40887a79fc4,,,,,,,,,,,,,
,,,,,,,,,,,,d,1,0.68456,0,5,5,5,1,,,,,images/06impossible.bmp,images/06impossible.bmp,images/06impossible.bmp,,,,,,,,,,,,,,,,images/06impossible.bmp,,,,,,,,,,d,,216,216,144,72,0,288,216,144,72,0,288,216,144,72,0,288,144,144,72,0,288,216,144,72,0,288,216,144,72,0,288,216,5f639b571cb2830a931bc80e,60464aa8c5672f0eaf45dbc0,2021-03-08_16h04.37.448,Impossible2021,2020.1.3,Win32,60,60462d2f8138f40887a79fc4,,,,,,,,,,,,,
,,,,,,,,,,,,,,,,,,,,,images/03impossible.bmp,,,,,,,,,,,,,,,,images/03impossible.bmp,,,,,,,,,,,,,,,d,impossible,72,72,0,288,216,144,72,0,288,216,144,72,0,288,216,144,0,0,288,216,144,72,0,288,216,144,72,0,288,216,144,72,5f639b571cb2830a931bc80e,60464aa8c5672f0eaf45dbc0,2021-03-08_16h04.37.448,Impossible2021,2020.1.3,Win32,60,60462d2f8138f40887a79fc4,space,8.26896,d,1,0.866,0,0,0,6,1,1,,
,,,,,,,,,,,,,,,,,,,,,,images/05possible.bmp,images/05possible.bmp,,,,,,,,,,,,,,,,images/05possible.bmp,,,,,,,,,,,,,d,possible,216,216,144,72,0,288,216,144,72,0,288,216,144,72,0,288,144,144,72,0,288,216,144,72,0,288,216,144,72,0,288,216,5f639b571cb2830a931bc80e,60464aa8c5672f0eaf45dbc0,2021-03-08_16h04.37.448,Impossible2021,2020.1.3,Win32,60,60462d2f8138f40887a79fc4,,,s,0,0.685805,0,1,1,31,1,2,,
,,,,,,,,,,,,,,,,,,,,,,,,,,,images/65impossible.bmp,images/65impossible.bmp,images/65impossible.bmp,images/65impossible.bmp,,,,,,,,,,,,,,,images/65impossible.bmp,,,,,,,s,impossible,144,144,72,0,288,216,144,72,0,288,216,144,72,0,288,216,144,144,72,0,288,216,144,72,0,288,216,144,72,0,288,216,5f639b571cb2830a931bc80e,60464aa8c5672f0eaf45dbc0,2021-03-08_16h04.37.448,Impossible2021,2020.1.3,Win32,60,60462d2f8138f40887a79fc4,,,s,1,0.498435,0,2,2,88,1,4,,
,,,,,,,,,,,,,,,,,,,,,,,,images/65possible.bmp,images/65possible.bmp,images/65possible.bmp,,,,,,,,,,,,,,images/65possible.bmp,,,,,,,,,,,,d,possible,144,144,72,0,288,216,144,72,0,288,216,144,72,0,288,216,72,72,0,288,216,144,72,0,288,216,144,72,0,288,216,144,5f639b571cb2830a931bc80e,60464aa8c5672f0eaf45dbc0,2021-03-08_16h04.37.448,Impossible2021,2020.1.3,Win32,60,60462d2f8138f40887a79fc4,,,d,1,0.866795,0,3,3,70,1,3,,
,,,,,,,,,,,,,,,,,,,,,,images/25possible.bmp,images/25possible.bmp,,,,,,,,,,,,,,,,images/25possible.bmp,,,,,,,,,,,,,d,possible,72,72,0,288,216,144,72,0,288,216,144,72,0,288,216,144,0,0,288,216,144,72,0,288,216,144,72,0,288,216,144,72,5f639b571cb2830a931bc80e,60464aa8c5672f0eaf45dbc0,2021-03-08_16h04.37.448,Impossible2021,2020.1.3,Win32,60,60462d2f8138f40887a79fc4,,,s,0,1.032145,0,4,4,35,1,2,,
,,,,,,,,,,,,,,,,,,,,,,,,,,,,,,,images/25impossible.bmp,images/25impossible.bmp,images/25impossible.bmp,images/25impossible.bmp,images/25impossible.bmp,,,,,,,,,,,,,,,,images/25impossible.bmp,d,impossible,72,72,0,288,216,144,72,0,288,216,144,72,0,288,216,144,0,0,288,216,144,72,0,288,216,144,72,0,288,216,144,72,5f639b571cb2830a931bc80e,60464aa8c5672f0eaf45dbc0,2021-03-08_16h04.37.448,Impossible2021,2020.1.3,Win32,60,60462d2f8138f40887a79fc4,,,s,0,1.02688,0,5,5,107,1,5,,
,,,,,,,,,,,,,,,,,,,,,images/24impossible.bmp,,,,,,,,,,,,,,,,images/24impossible.bmp,,,,,,,,,,,,,,,s,impossible,0,0,288,216,144,72,0,288,216,144,72,0,288,216,144,72,0,0,288,216,144,72,0,288,216,144,72,0,288,216,144,72,5f639b571cb2830a931bc80e,60464aa8c5672f0eaf45dbc0,2021-03-08_16h04.37.448,Impossible2021,2020.1.3,Win32,60,60462d2f8138f40887a79fc4,,,s,1,0.782395,0,6,6,4,1,1,,
,,,,,,,,,,,,,,,,,,,,,,images/22possible.bmp,images/22possible.bmp,,,,,,,,,,,,,,,,images/22possible.bmp,,,,,,,,,,,,,s,possible,216,216,144,72,0,288,216,144,72,0,288,216,144,72,0,288,216,216,144,72,0,288,216,144,72,0,288,216,144,72,0,288,5f639b571cb2830a931bc80e,60464aa8c5672f0eaf45dbc0,2021-03-08_16h04.37.448,Impossible2021,2020.1.3,Win32,60,60462d2f8138f40887a79fc4,,,d,0,1.400915,0,7,7,27,1,2,,
,,,,,,,,,,,,,,,,,,,,,,images/03possible.bmp,images/03possible.bmp,,,,,,,,,,,,,,,images/03possible.bmp,,,,,,,,,,,,,,d,possible,72,72,0,288,216,144,72,0,288,216,144,72,0,288,216,144,0,0,288,216,144,72,0,288,216,144,72,0,288,216,144,72,5f639b571cb2830a931bc80e,60464aa8c5672f0eaf45dbc0,2021-03-08_16h04.37.448,Impossible2021,2020.1.3,Win32,60,60462d2f8138f40887a79fc4,,,d,1,0.967485,0,8,8,30,1,2,,
,,,,,,,,,,,,,,,,,,,,,,,,images/22impossible.bmp,images/22impossible.bmp,images/22impossible.bmp,,,,,,,,,,,,,,,,images/22impossible.bmp,,,,,,,,,,s,impossible,216,216,144,72,0,288,216,144,72,0,288,216,144,72,0,288,216,216,144,72,0,288,216,144,72,0,288,216,144,72,0,288,5f639b571cb2830a931bc80e,60464aa8c5672f0eaf45dbc0,2021-03-08_16h04.37.448,Impossible2021,2020.1.3,Win32,60,60462d2f8138f40887a79fc4,,,s,1,1.105695,0,9,9,51,1,3,,
,,,,,,,,,,,,,,,,,,,,images/25impossible.bmp,,,,,,,,,,,,,,,,images/25impossible.bmp,,,,,,,,,,,,,,,,s,impossible,72,72,0,288,216,144,72,0,288,216,144,72,0,288,216,144,72,72,0,288,216,144,72,0,288,216,144,72,0,288,216,144,5f639b571cb2830a931bc80e,60464aa8c5672f0eaf45dbc0,2021-03-08_16h04.37.448,Impossible2021,2020.1.3,Win32,60,60462d2f8138f40887a79fc4,,,d,0,0.418,0,10,10,5,1,1,,
,,,,,,,,,,,,,,,,,,,,,,,,,,,,,,,images/55possible.bmp,images/55possible.bmp,images/55possible.bmp,images/55possible.bmp,images/55possible.bmp,,,,,,,,,,,,,,,,images/55possible.bmp,s,possible,72,72,0,288,216,144,72,0,288,216,144,72,0,288,216,144,72,72,0,288,216,144,72,0,288,216,144,72,0,288,216,144,5f639b571cb2830a931bc80e,60464aa8c5672f0eaf45dbc0,2021-03-08_16h04.37.448,Impossible2021,2020.1.3,Win32,60,60462d2f8138f40887a79fc4,,,d,0,1.868705,0,11,11,111,1,5,,
,,,,,,,,,,,,,,,,,,,,,,,,,,,images/22possible.bmp,images/22possible.bmp,images/22possible.bmp,images/22possible.bmp,,,,,,,,,,,,,,,images/22possible.bmp,,,,,,,d,possible,216,216,144,72,0,288,216,144,72,0,288,216,144,72,0,288,144,144,72,0,288,216,144,72,0,288,216,144,72,0,288,216,5f639b571cb2830a931bc80e,60464aa8c5672f0eaf45dbc0,2021-03-08_16h04.37.448,Impossible2021,2020.1.3,Win32,60,60462d2f8138f40887a79fc4,,,s,0,1.377195,0,12,12,81,1,4,,
,,,,,,,,,,,,,,,,,,,,,images/05impossible.bmp,,,,,,,,,,,,,,,,images/05impossible.bmp,,,,,,,,,,,,,,,d,impossible,216,216,144,72,0,288,216,144,72,0,288,216,144,72,0,288,144,144,72,0,288,216,144,72,0,288,216,144,72,0,288,216,5f639b571cb2830a931bc80e,60464aa8c5672f0eaf45dbc0,2021-03-08_16h04.37.448,Impossible2021,2020.1.3,Win32,60,60462d2f8138f40887a79fc4,,,d,1,0.809885,0,13,13,7,1,1,,
,,,,,,,,,,,,,,,,,,,,,,,,,,,images/42impossible.bmp,images/42impossible.bmp,images/42impossible.bmp,images/42impossible.bmp,,,,,,,,,,,,,,,,images/42impossible.bmp,,,,,,s,impossible,144,144,72,0,288,216,144,72,0,288,216,144,72,0,288,216,144,144,72,0,288,216,144,72,0,288,216,144,72,0,288,216,5f639b571cb2830a931bc80e,60464aa8c5672f0eaf45dbc0,2021-03-08_16h04.37.448,Impossible2021,2020.1.3,Win32,60,60462d2f8138f40887a79fc4,,,s,1,1.213645,0,14,14,85,1,4,,
,,,,,,,,,,,,,,,,,,,,,,,,,,,images/24possible.bmp,images/24possible.bmp,images/24possible.bmp,images/24possible.bmp,,,,,,,,,,,,,images/24possible.bmp,,,,,,,,,s,possible,0,0,288,216,144,72,0,288,216,144,72,0,288,216,144,72,0,0,288,216,144,72,0,288,216,144,72,0,288,216,144,72,5f639b571cb2830a931bc80e,60464aa8c5672f0eaf45dbc0,2021-03-08_16h04.37.448,Impossible2021,2020.1.3,Win32,60,60462d2f8138f40887a79fc4,,,d,0,1.4808,0,15,15,76,1,4,,
,,,,,,,,,,,,,,,,,,,,images/44possible.bmp,,,,,,,,,,,,,,,,images/44possible.bmp,,,,,,,,,,,,,,,,s,possible,216,216,144,72,0,288,216,144,72,0,288,216,144,72,0,288,216,216,144,72,0,288,216,144,72,0,288,216,144,72,0,288,5f639b571cb2830a931bc80e,60464aa8c5672f0eaf45dbc0,2021-03-08_16h04.37.448,Impossible2021,2020.1.3,Win32,60,60462d2f8138f40887a79fc4,,,s,1,0.892005,0,16,16,14,1,1,,
,,,,,,,,,,,,,,,,,,,,images/22impossible.bmp,,,,,,,,,,,,,,,,images/22impossible.bmp,,,,,,,,,,,,,,,,d,impossible,216,216,144,72,0,288,216,144,72,0,288,216,144,72,0,288,144,144,72,0,288,216,144,72,0,288,216,144,72,0,288,216,5f639b571cb2830a931bc80e,60464aa8c5672f0eaf45dbc0,2021-03-08_16h04.37.448,Impossible2021,2020.1.3,Win32,60,60462d2f8138f40887a79fc4,,,s,0,1.206195,0,17,17,9,1,1,,
,,,,,,,,,,,,,,,,,,,,,,,,,,,,,,,images/05impossible.bmp,images/05impossible.bmp,images/05impossible.bmp,images/05impossible.bmp,images/05impossible.bmp,,,,,,,,,,,,,,images/05impossible.bmp,,,d,impossible,216,216,144,72,0,288,216,144,72,0,288,216,144,72,0,288,144,144,72,0,288,216,144,72,0,288,216,144,72,0,288,216,5f639b571cb2830a931bc80e,60464aa8c5672f0eaf45dbc0,2021-03-08_16h04.37.448,Impossible2021,2020.1.3,Win32,60,60462d2f8138f40887a79fc4,,,d,1,0.879595,0,18,18,103,1,5,,
,,,,,,,,,,,,,,,,,,,,,,images/69impossible.bmp,images/69impossible.bmp,,,,,,,,,,,,,,,,images/69impossible.bmp,,,,,,,,,,,,,d,impossible,216,216,144,72,0,288,216,144,72,0,288,216,144,72,0,288,144,144,72,0,288,216,144,72,0,288,216,144,72,0,288,216,5f639b571cb2830a931bc80e,60464aa8c5672f0eaf45dbc0,2021-03-08_16h04.37.448,Impossible2021,2020.1.3,Win32,60,60462d2f8138f40887a79fc4,,,d,1,1.238155,0,19,19,47,1,2,,
,,,,,,,,,,,,,,,,,,,,,,images/65impossible.bmp,images/65impossible.bmp,,,,,,,,,,,,,,,images/65impossible.bmp,,,,,,,,,,,,,,d,impossible,144,144,72,0,288,216,144,72,0,288,216,144,72,0,288,216,72,72,0,288,216,144,72,0,288,216,144,72,0,288,216,144,5f639b571cb2830a931bc80e,60464aa8c5672f0eaf45dbc0,2021-03-08_16h04.37.448,Impossible2021,2020.1.3,Win32,60,60462d2f8138f40887a79fc4,,,d,1,1.347275,0,20,20,46,1,2,,
,,,,,,,,,,,,,,,,,,,,,images/08impossible.bmp,,,,,,,,,,,,,,,,images/08impossible.bmp,,,,,,,,,,,,,,,s,impossible,288,288,216,144,72,0,288,216,144,72,0,288,216,144,72,0,288,288,216,144,72,0,288,216,144,72,0,288,216,144,72,0,5f639b571cb2830a931bc80e,60464aa8c5672f0eaf45dbc0,2021-03-08_16h04.37.448,Impossible2021,2020.1.3,Win32,60,60462d2f8138f40887a79fc4,,,s,1,1.15169,0,21,21,2,1,1,,
,,,,,,,,,,,,,,,,,,,,,,,,images/38possible.bmp,images/38possible.bmp,images/38possible.bmp,,,,,,,,,,,,,,,images/38possible.bmp,,,,,,,,,,,s,possible,72,72,0,288,216,144,72,0,288,216,144,72,0,288,216,144,72,72,0,288,216,144,72,0,288,216,144,72,0,288,216,144,5f639b571cb2830a931bc80e,60464aa8c5672f0eaf45dbc0,2021-03-08_16h04.37.448,Impossible2021,2020.1.3,Win32,60,60462d2f8138f40887a79fc4,,,s,1,1.317025,0,22,22,60,1,3,,
,,,,,,,,,,,,,,,,,,,,,,,,,,,,,,,images/38possible.bmp,images/38possible.bmp,images/38possible.bmp,images/38possible.bmp,images/38possible.bmp,,,,,,,,,,,,,,,,images/38possible.bmp,d,possible,72,72,0,288,216,144,72,0,288,216,144,72,0,288,216,144,0,0,288,216,144,72,0,288,216,144,72,0,288,216,144,72,5f639b571cb2830a931bc80e,60464aa8c5672f0eaf45dbc0,2021-03-08_16h04.37.448,Impossible2021,2020.1.3,Win32,60,60462d2f8138f40887a79fc4,,,d,1,0.92871,0,23,23,114,1,5,,
,,,,,,,,,,,,,,,,,,,,,,images/22possible.bmp,images/22possible.bmp,,,,,,,,,,,,,,,,images/22possible.bmp,,,,,,,,,,,,,d,possible,216,216,144,72,0,288,216,144,72,0,288,216,144,72,0,288,144,144,72,0,288,216,144,72,0,288,216,144,72,0,288,216,5f639b571cb2830a931bc80e,60464aa8c5672f0eaf45dbc0,2021-03-08_16h04.37.448,Impossible2021,2020.1.3,Win32,60,60462d2f8138f40887a79fc4,,,d,1,1.880195,0,24,24,33,1,2,,
,,,,,,,,,,,,,,,,,,,,,,,,,,,images/65impossible.bmp,images/65impossible.bmp,images/65impossible.bmp,images/65impossible.bmp,,,,,,,,,,,,,,,images/65impossible.bmp,,,,,,,d,impossible,144,144,72,0,288,216,144,72,0,288,216,144,72,0,288,216,72,72,0,288,216,144,72,0,288,216,144,72,0,288,216,144,5f639b571cb2830a931bc80e,60464aa8c5672f0eaf45dbc0,2021-03-08_16h04.37.448,Impossible2021,2020.1.3,Win32,60,60462d2f8138f40887a79fc4,,,s,0,0.428325,0,25,25,94,1,4,,
,,,,,,,,,,,,,,,,,,,,,,,,,,,,,,,images/08impossible.bmp,images/08impossible.bmp,images/08impossible.bmp,images/08impossible.bmp,images/08impossible.bmp,,,,,,,,,,,,,images/08impossible.bmp,,,,d,impossible,288,288,216,144,72,0,288,216,144,72,0,288,216,144,72,0,216,216,144,72,0,288,216,144,72,0,288,216,144,72,0,288,5f639b571cb2830a931bc80e,60464aa8c5672f0eaf45dbc0,2021-03-08_16h04.37.448,Impossible2021,2020.1.3,Win32,60,60462d2f8138f40887a79fc4,,,d,1,0.3814,0,26,26,104,1,5,,
,,,,,,,,,,,,,,,,,,,,,,,,images/55possible.bmp,images/55possible.bmp,images/55possible.bmp,,,,,,,,,,,,,,,images/55possible.bmp,,,,,,,,,,,d,possible,72,72,0,288,216,144,72,0,288,216,144,72,0,288,216,144,0,0,288,216,144,72,0,288,216,144,72,0,288,216,144,72,5f639b571cb2830a931bc80e,60464aa8c5672f0eaf45dbc0,2021-03-08_16h04.37.448,Impossible2021,2020.1.3,Win32,60,60462d2f8138f40887a79fc4,,,d,1,1.43836,0,27,27,69,1,3,,
,,,,,,,,,,,,,,,,,,,,,,,,,,,images/38impossible.bmp,images/38impossible.bmp,images/38impossible.bmp,images/38impossible.bmp,,,,,,,,,,,,,,,images/38impossible.bmp,,,,,,,d,impossible,72,72,0,288,216,144,72,0,288,216,144,72,0,288,216,144,0,0,288,216,144,72,0,288,216,144,72,0,288,216,144,72,5f639b571cb2830a931bc80e,60464aa8c5672f0eaf45dbc0,2021-03-08_16h04.37.448,Impossible2021,2020.1.3,Win32,60,60462d2f8138f40887a79fc4,,,d,1,0.95923,0,28,28,90,1,4,,
,,,,,,,,,,,,,,,,,,,,,,,,,,,,,,,images/69possible.bmp,images/69possible.bmp,images/69possible.bmp,images/69possible.bmp,images/69possible.bmp,,,,,,,,,,,,,,images/69possible.bmp,,,d,possible,216,216,144,72,0,288,216,144,72,0,288,216,144,72,0,288,144,144,72,0,288,216,144,72,0,288,216,144,72,0,288,216,5f639b571cb2830a931bc80e,60464aa8c5672f0eaf45dbc0,2021-03-08_16h04.37.448,Impossible2021,2020.1.3,Win32,60,60462d2f8138f40887a79fc4,,,d,1,1.47834,0,29,29,119,1,5,,
,,,,,,,,,,,,,,,,,,,,,images/38possible.bmp,,,,,,,,,,,,,,,,images/38possible.bmp,,,,,,,,,,,,,,,d,possible,72,72,0,288,216,144,72,0,288,216,144,72,0,288,216,144,0,0,288,216,144,72,0,288,216,144,72,0,288,216,144,72,5f639b571cb2830a931bc80e,60464aa8c5672f0eaf45dbc0,2021-03-08_16h04.37.448,Impossible2021,2020.1.3,Win32,60,60462d2f8138f40887a79fc4,,,d,1,0.68486,0,30,30,18,1,1,,
,,,,,,,,,,,,,,,,,,,,,,images/42impossible.bmp,images/42impossible.bmp,,,,,,,,,,,,,,,,images/42impossible.bmp,,,,,,,,,,,,,s,impossible,144,144,72,0,288,216,144,72,0,288,216,144,72,0,288,216,144,144,72,0,288,216,144,72,0,288,216,144,72,0,288,216,5f639b571cb2830a931bc80e,60464aa8c5672f0eaf45dbc0,2021-03-08_16h04.37.448,Impossible2021,2020.1.3,Win32,60,60462d2f8138f40887a79fc4,,,s,1,1.54413,0,31,31,37,1,2,,
,,,,,,,,,,,,,,,,,,,,,,,,,,,images/25possible.bmp,images/25possible.bmp,images/25possible.bmp,images/25possible.bmp,,,,,,,,,,,,,,,images/25possible.bmp,,,,,,,s,possible,72,72,0,288,216,144,72,0,288,216,144,72,0,288,216,144,72,72,0,288,216,144,72,0,288,216,144,72,0,288,216,144,5f639b571cb2830a931bc80e,60464aa8c5672f0eaf45dbc0,2021-03-08_16h04.37.448,Impossible2021,2020.1.3,Win32,60,60462d2f8138f40887a79fc4,,,s,1,1.006415,0,32,32,77,1,4,,
,,,,,,,,,,,,,,,,,,,,,,,,,,,images/25possible.bmp,images/25possible.bmp,images/25possible.bmp,images/25possible.bmp,,,,,,,,,,,,,,images/25possible.bmp,,,,,,,,d,possible,72,72,0,288,216,144,72,0,288,216,144,72,0,288,216,144,0,0,288,216,144,72,0,288,216,144,72,0,288,216,144,72,5f639b571cb2830a931bc80e,60464aa8c5672f0eaf45dbc0,2021-03-08_16h04.37.448,Impossible2021,2020.1.3,Win32,60,60462d2f8138f40887a79fc4,,,d,1,1.36405,0,33,33,83,1,4,,
,,,,,,,,,,,,,,,,,,,,,,images/08possible.bmp,images/08possible.bmp,,,,,,,,,,,,,,,images/08possible.bmp,,,,,,,,,,,,,,s,possible,288,288,216,144,72,0,288,216,144,72,0,288,216,144,72,0,288,288,216,144,72,0,288,216,144,72,0,288,216,144,72,0,5f639b571cb2830a931bc80e,60464aa8c5672f0eaf45dbc0,2021-03-08_16h04.37.448,Impossible2021,2020.1.3,Win32,60,60462d2f8138f40887a79fc4,,,d,0,0.966585,0,34,34,26,1,2,,
,,,,,,,,,,,,,,,,,,,,,,,,,,,,,,,images/03impossible.bmp,images/03impossible.bmp,images/03impossible.bmp,images/03impossible.bmp,images/03impossible.bmp,,,,,,,,,,,,,,,,images/03impossible.bmp,d,impossible,72,72,0,288,216,144,72,0,288,216,144,72,0,288,216,144,0,0,288,216,144,72,0,288,216,144,72,0,288,216,144,72,5f639b571cb2830a931bc80e,60464aa8c5672f0eaf45dbc0,2021-03-08_16h04.37.448,Impossible2021,2020.1.3,Win32,60,60462d2f8138f40887a79fc4,,,d,1,0.63026,0,35,35,102,1,5,,
,,,,,,,,,,,,,,,,,,,,,,,,,,,images/55impossible.bmp,images/55impossible.bmp,images/55impossible.bmp,images/55impossible.bmp,,,,,,,,,,,,,,images/55impossible.bmp,,,,,,,,s,impossible,72,72,0,288,216,144,72,0,288,216,144,72,0,288,216,144,72,72,0,288,216,144,72,0,288,216,144,72,0,288,216,144,5f639b571cb2830a931bc80e,60464aa8c5672f0eaf45dbc0,2021-03-08_16h04.37.448,Impossible2021,2020.1.3,Win32,60,60462d2f8138f40887a79fc4,,,d,0,1.66819,0,36,36,87,1,4,,
,,,,,,,,,,,,,,,,,,,,,,,,,,,images/05possible.bmp,images/05possible.bmp,images/05possible.bmp,images/05possible.bmp,,,,,,,,,,,,,,,,images/05possible.bmp,,,,,,s,possible,216,216,144,72,0,288,216,144,72,0,288,216,144,72,0,288,216,216,144,72,0,288,216,144,72,0,288,216,144,72,0,288,5f639b571cb2830a931bc80e,60464aa8c5672f0eaf45dbc0,2021-03-08_16h04.37.448,Impossible2021,2020.1.3,Win32,60,60462d2f8138f40887a79fc4,,,s,1,3.604725,0,37,37,73,1,4,,
,,,,,,,,,,,,,,,,,,,,,,,,,,,images/08possible.bmp,images/08possible.bmp,images/08possible.bmp,images/08possible.bmp,,,,,,,,,,,,,images/08possible.bmp,,,,,,,,,d,possible,288,288,216,144,72,0,288,216,144,72,0,288,216,144,72,0,216,216,144,72,0,288,216,144,72,0,288,216,144,72,0,288,5f639b571cb2830a931bc80e,60464aa8c5672f0eaf45dbc0,2021-03-08_16h04.37.448,Impossible2021,2020.1.3,Win32,60,60462d2f8138f40887a79fc4,,,s,0,1.14802,0,38,38,80,1,4,,
,,,,,,,,,,,,,,,,,,,,images/24impossible.bmp,,,,,,,,,,,,,,,,images/24impossible.bmp,,,,,,,,,,,,,,,,d,impossible,0,0,288,216,144,72,0,288,216,144,72,0,288,216,144,72,288,288,216,144,72,0,288,216,144,72,0,288,216,144,72,0,5f639b571cb2830a931bc80e,60464aa8c5672f0eaf45dbc0,2021-03-08_16h04.37.448,Impossible2021,2020.1.3,Win32,60,60462d2f8138f40887a79fc4,,,d,1,0.64841,0,39,39,10,1,1,,
,,,,,,,,,,,,,,,,,,,,,,,,,,,images/22possible.bmp,images/22possible.bmp,images/22possible.bmp,images/22possible.bmp,,,,,,,,,,,,,,images/22possible.bmp,,,,,,,,s,possible,216,216,144,72,0,288,216,144,72,0,288,216,144,72,0,288,216,216,144,72,0,288,216,144,72,0,288,216,144,72,0,288,5f639b571cb2830a931bc80e,60464aa8c5672f0eaf45dbc0,2021-03-08_16h04.37.448,Impossible2021,2020.1.3,Win32,60,60462d2f8138f40887a79fc4,,,d,0,1.08291,0,40,40,75,1,4,,
,,,,,,,,,,,,,,,,,,,,,,,,images/25impossible.bmp,images/25impossible.bmp,images/25impossible.bmp,,,,,,,,,,,,,,images/25impossible.bmp,,,,,,,,,,,,s,impossible,72,72,0,288,216,144,72,0,288,216,144,72,0,288,216,144,72,72,0,288,216,144,72,0,288,216,144,72,0,288,216,144,5f639b571cb2830a931bc80e,60464aa8c5672f0eaf45dbc0,2021-03-08_16h04.37.448,Impossible2021,2020.1.3,Win32,60,60462d2f8138f40887a79fc4,,,d,0,1.49747,0,41,41,53,1,3,,
,,,,,,,,,,,,,,,,,,,,,images/22impossible.bmp,,,,,,,,,,,,,,,,images/22impossible.bmp,,,,,,,,,,,,,,,s,impossible,216,216,144,72,0,288,216,144,72,0,288,216,144,72,0,288,216,216,144,72,0,288,216,144,72,0,288,216,144,72,0,288,5f639b571cb2830a931bc80e,60464aa8c5672f0eaf45dbc0,2021-03-08_16h04.37.448,Impossible2021,2020.1.3,Win32,60,60462d2f8138f40887a79fc4,,,s,1,0.44872,0,42,42,3,1,1,,
,,,,,,,,,,,,,,,,,,,,,,,,,,,,,,,images/65possible.bmp,images/65possible.bmp,images/65possible.bmp,images/65possible.bmp,images/65possible.bmp,,,,,,,,,,,,,,,images/65possible.bmp,,s,possible,144,144,72,0,288,216,144,72,0,288,216,144,72,0,288,216,144,144,72,0,288,216,144,72,0,288,216,144,72,0,288,216,5f639b571cb2830a931bc80e,60464aa8c5672f0eaf45dbc0,2021-03-08_16h04.37.448,Impossible2021,2020.1.3,Win32,60,60462d2f8138f40887a79fc4,,,s,1,0.957705,0,43,43,112,1,5,,
,,,,,,,,,,,,,,,,,,,,images/03impossible.bmp,,,,,,,,,,,,,,,,images/03impossible.bmp,,,,,,,,,,,,,,,,s,impossible,72,72,0,288,216,144,72,0,288,216,144,72,0,288,216,144,72,72,0,288,216,144,72,0,288,216,144,72,0,288,216,144,5f639b571cb2830a931bc80e,60464aa8c5672f0eaf45dbc0,2021-03-08_16h04.37.448,Impossible2021,2020.1.3,Win32,60,60462d2f8138f40887a79fc4,,,s,1,0.669615,0,44,44,0,1,1,,
,,,,,,,,,,,,,,,,,,,,,,,,,,,,,,,images/42possible.bmp,images/42possible.bmp,images/42possible.bmp,images/42possible.bmp,images/42possible.bmp,,,,,,,,,,,,,images/42possible.bmp,,,,s,possible,144,144,72,0,288,216,144,72,0,288,216,144,72,0,288,216,144,144,72,0,288,216,144,72,0,288,216,144,72,0,288,216,5f639b571cb2830a931bc80e,60464aa8c5672f0eaf45dbc0,2021-03-08_16h04.37.448,Impossible2021,2020.1.3,Win32,60,60462d2f8138f40887a79fc4,,,d,0,0.94745,0,45,45,109,1,5,,
,,,,,,,,,,,,,,,,,,,,,,,,images/22impossible.bmp,images/22impossible.bmp,images/22impossible.bmp,,,,,,,,,,,,,,,,images/22impossible.bmp,,,,,,,,,,d,impossible,216,216,144,72,0,288,216,144,72,0,288,216,144,72,0,288,144,144,72,0,288,216,144,72,0,288,216,144,72,0,288,216,5f639b571cb2830a931bc80e,60464aa8c5672f0eaf45dbc0,2021-03-08_16h04.37.448,Impossible2021,2020.1.3,Win32,60,60462d2f8138f40887a79fc4,,,s,0,0.20844,0,46,46,57,1,3,,
,,,,,,,,,,,,,,,,,,,,,,images/24possible.bmp,images/24possible.bmp,,,,,,,,,,,,,,,images/24possible.bmp,,,,,,,,,,,,,,d,possible,0,0,288,216,144,72,0,288,216,144,72,0,288,216,144,72,288,288,216,144,72,0,288,216,144,72,0,288,216,144,72,0,5f639b571cb2830a931bc80e,60464aa8c5672f0eaf45dbc0,2021-03-08_16h04.37.448,Impossible2021,2020.1.3,Win32,60,60462d2f8138f40887a79fc4,,,d,1,0.63887,0,47,47,34,1,2,,
,,,,,,,,,,,,,,,,,,,,images/65possible.bmp,,,,,,,,,,,,,,,,images/65possible.bmp,,,,,,,,,,,,,,,,s,possible,144,144,72,0,288,216,144,72,0,288,216,144,72,0,288,216,144,144,72,0,288,216,144,72,0,288,216,144,72,0,288,216,5f639b571cb2830a931bc80e,60464aa8c5672f0eaf45dbc0,2021-03-08_16h04.37.448,Impossible2021,2020.1.3,Win32,60,60462d2f8138f40887a79fc4,,,s,1,0.977625,0,48,48,16,1,1,,
,,,,,,,,,,,,,,,,,,,,,,,,,,,,,,,images/22impossible.bmp,images/22impossible.bmp,images/22impossible.bmp,images/22impossible.bmp,images/22impossible.bmp,,,,,,,,,,,,,images/22impossible.bmp,,,,s,impossible,216,216,144,72,0,288,216,144,72,0,288,216,144,72,0,288,216,216,144,72,0,288,216,144,72,0,288,216,144,72,0,288,5f639b571cb2830a931bc80e,60464aa8c5672f0eaf45dbc0,2021-03-08_16h04.37.448,Impossible2021,2020.1.3,Win32,60,60462d2f8138f40887a79fc4,,,s,1,0.175655,0,49,49,99,1,5,,
,,,,,,,,,,,,,,,,,,,,,,,,images/24impossible.bmp,images/24impossible.bmp,images/24impossible.bmp,,,,,,,,,,,,,,,images/24impossible.bmp,,,,,,,,,,,d,impossible,0,0,288,216,144,72,0,288,216,144,72,0,288,216,144,72,288,288,216,144,72,0,288,216,144,72,0,288,216,144,72,0,5f639b571cb2830a931bc80e,60464aa8c5672f0eaf45dbc0,2021-03-08_16h04.37.448,Impossible2021,2020.1.3,Win32,60,60462d2f8138f40887a79fc4,,,d,1,0.34857,0,50,50,58,1,3,,
,,,,,,,,,,,,,,,,,,,,,,,,,,,images/44impossible.bmp,images/44impossible.bmp,images/44impossible.bmp,images/44impossible.bmp,,,,,,,,,,,,,images/44impossible.bmp,,,,,,,,,d,impossible,216,216,144,72,0,288,216,144,72,0,288,216,144,72,0,288,144,144,72,0,288,216,144,72,0,288,216,144,72,0,288,216,5f639b571cb2830a931bc80e,60464aa8c5672f0eaf45dbc0,2021-03-08_16h04.37.448,Impossible2021,2020.1.3,Win32,60,60462d2f8138f40887a79fc4,,,d,1,1.424945,0,51,51,92,1,4,,
,,,,,,,,,,,,,,,,,,,,,images/25impossible.bmp,,,,,,,,,,,,,,,,images/25impossible.bmp,,,,,,,,,,,,,,,d,impossible,72,72,0,288,216,144,72,0,288,216,144,72,0,288,216,144,0,0,288,216,144,72,0,288,216,144,72,0,288,216,144,72,5f639b571cb2830a931bc80e,60464aa8c5672f0eaf45dbc0,2021-03-08_16h04.37.448,Impossible2021,2020.1.3,Win32,60,60462d2f8138f40887a79fc4,,,s,0,1.89791,0,52,52,11,1,1,,
,,,,,,,,,,,,,,,,,,,,,images/44possible.bmp,,,,,,,,,,,,,,,,images/44possible.bmp,,,,,,,,,,,,,,,d,possible,216,216,144,72,0,288,216,144,72,0,288,216,144,72,0,288,144,144,72,0,288,216,144,72,0,288,216,144,72,0,288,216,5f639b571cb2830a931bc80e,60464aa8c5672f0eaf45dbc0,2021-03-08_16h04.37.448,Impossible2021,2020.1.3,Win32,60,60462d2f8138f40887a79fc4,,,s,0,0.85833,0,53,53,20,1,1,,
,,,,,,,,,,,,,,,,,,,,,,,,images/05impossible.bmp,images/05impossible.bmp,images/05impossible.bmp,,,,,,,,,,,,,,,,images/05impossible.bmp,,,,,,,,,,d,impossible,216,216,144,72,0,288,216,144,72,0,288,216,144,72,0,288,144,144,72,0,288,216,144,72,0,288,216,144,72,0,288,216,5f639b571cb2830a931bc80e,60464aa8c5672f0eaf45dbc0,2021-03-08_16h04.37.448,Impossible2021,2020.1.3,Win32,60,60462d2f8138f40887a79fc4,,,d,1,0.46693,0,54,54,55,1,3,,
,,,,,,,,,,,,,,,,,,,,,,,,images/42possible.bmp,images/42possible.bmp,images/42possible.bmp,,,,,,,,,,,,,,images/42possible.bmp,,,,,,,,,,,,d,possible,144,144,72,0,288,216,144,72,0,288,216,144,72,0,288,216,72,72,0,288,216,144,72,0,288,216,144,72,0,288,216,144,5f639b571cb2830a931bc80e,60464aa8c5672f0eaf45dbc0,2021-03-08_16h04.37.448,Impossible2021,2020.1.3,Win32,60,60462d2f8138f40887a79fc4,,,d,1,1.35478,0,55,55,67,1,3,,
,,,,,,,,,,,,,,,,,,,,,images/55possible.bmp,,,,,,,,,,,,,,,,images/55possible.bmp,,,,,,,,,,,,,,,s,possible,72,72,0,288,216,144,72,0,288,216,144,72,0,288,216,144,72,72,0,288,216,144,72,0,288,216,144,72,0,288,216,144,5f639b571cb2830a931bc80e,60464aa8c5672f0eaf45dbc0,2021-03-08_16h04.37.448,Impossible2021,2020.1.3,Win32,60,60462d2f8138f40887a79fc4,,,s,1,0.763265,0,56,56,15,1,1,,
,,,,,,,,,,,,,,,,,,,,,,images/03possible.bmp,images/03possible.bmp,,,,,,,,,,,,,,,images/03possible.bmp,,,,,,,,,,,,,,s,possible,72,72,0,288,216,144,72,0,288,216,144,72,0,288,216,144,72,72,0,288,216,144,72,0,288,216,144,72,0,288,216,144,5f639b571cb2830a931bc80e,60464aa8c5672f0eaf45dbc0,2021-03-08_16h04.37.448,Impossible2021,2020.1.3,Win32,60,60462d2f8138f40887a79fc4,,,s,1,0.853815,0,57,57,24,1,2,,
,,,,,,,,,,,,,,,,,,,,,,,,,,,images/69impossible.bmp,images/69impossible.bmp,images/69impossible.bmp,images/69impossible.bmp,,,,,,,,,,,,,,,,images/69impossible.bmp,,,,,,s,impossible,216,216,144,72,0,288,216,144,72,0,288,216,144,72,0,288,216,216,144,72,0,288,216,144,72,0,288,216,144,72,0,288,5f639b571cb2830a931bc80e,60464aa8c5672f0eaf45dbc0,2021-03-08_16h04.37.448,Impossible2021,2020.1.3,Win32,60,60462d2f8138f40887a79fc4,,,d,0,1.06348,0,58,58,89,1,4,,
,,,,,,,,,,,,,,,,,,,,,,,,images/65possible.bmp,images/65possible.bmp,images/65possible.bmp,,,,,,,,,,,,,,,images/65possible.bmp,,,,,,,,,,,s,possible,144,144,72,0,288,216,144,72,0,288,216,144,72,0,288,216,144,144,72,0,288,216,144,72,0,288,216,144,72,0,288,216,5f639b571cb2830a931bc80e,60464aa8c5672f0eaf45dbc0,2021-03-08_16h04.37.448,Impossible2021,2020.1.3,Win32,60,60462d2f8138f40887a79fc4,,,s,1,1.99072,0,59,59,64,1,3,,
,,,,,,,,,,,,,,,,,,,,,,images/05possible.bmp,images/05possible.bmp,,,,,,,,,,,,,,,,images/05possible.bmp,,,,,,,,,,,,,s,possible,216,216,144,72,0,288,216,144,72,0,288,216,144,72,0,288,216,216,144,72,0,288,216,144,72,0,288,216,144,72,0,288,5f639b571cb2830a931bc80e,60464aa8c5672f0eaf45dbc0,2021-03-08_16h04.37.448,Impossible2021,2020.1.3,Win32,60,60462d2f8138f40887a79fc4,,,s,1,0.984895,0,60,60,25,1,2,,
,,,,,,,,,,,,,,,,,,,,,,,,,,,,,,,images/69possible.bmp,images/69possible.bmp,images/69possible.bmp,images/69possible.bmp,images/69possible.bmp,,,,,,,,,,,,,,images/69possible.bmp,,,s,possible,216,216,144,72,0,288,216,144,72,0,288,216,144,72,0,288,216,216,144,72,0,288,216,144,72,0,288,216,144,72,0,288,5f639b571cb2830a931bc80e,60464aa8c5672f0eaf45dbc0,2021-03-08_16h04.37.448,Impossible2021,2020.1.3,Win32,60,60462d2f8138f40887a79fc4,,,d,0,0.757555,0,61,61,113,1,5,,
,,,,,,,,,,,,,,,,,,,,,images/69possible.bmp,,,,,,,,,,,,,,,,images/69possible.bmp,,,,,,,,,,,,,,,s,possible,216,216,144,72,0,288,216,144,72,0,288,216,144,72,0,288,216,216,144,72,0,288,216,144,72,0,288,216,144,72,0,288,5f639b571cb2830a931bc80e,60464aa8c5672f0eaf45dbc0,2021-03-08_16h04.37.448,Impossible2021,2020.1.3,Win32,60,60462d2f8138f40887a79fc4,,,s,1,0.82762,0,62,62,17,1,1,,
,,,,,,,,,,,,,,,,,,,,,,,,,,,images/05possible.bmp,images/05possible.bmp,images/05possible.bmp,images/05possible.bmp,,,,,,,,,,,,,,,images/05possible.bmp,,,,,,,d,possible,216,216,144,72,0,288,216,144,72,0,288,216,144,72,0,288,144,144,72,0,288,216,144,72,0,288,216,144,72,0,288,216,5f639b571cb2830a931bc80e,60464aa8c5672f0eaf45dbc0,2021-03-08_16h04.37.448,Impossible2021,2020.1.3,Win32,60,60462d2f8138f40887a79fc4,,,d,1,1.026065,0,63,63,79,1,4,,
,,,,,,,,,,,,,,,,,,,,,,,,,,,images/69impossible.bmp,images/69impossible.bmp,images/69impossible.bmp,images/69impossible.bmp,,,,,,,,,,,,,,images/69impossible.bmp,,,,,,,,d,impossible,216,216,144,72,0,288,216,144,72,0,288,216,144,72,0,288,144,144,72,0,288,216,144,72,0,288,216,144,72,0,288,216,5f639b571cb2830a931bc80e,60464aa8c5672f0eaf45dbc0,2021-03-08_16h04.37.448,Impossible2021,2020.1.3,Win32,60,60462d2f8138f40887a79fc4,,,s,0,3.203415,0,64,64,95,1,4,,
,,,,,,,,,,,,,,,,,,,,images/08impossible.bmp,,,,,,,,,,,,,,,,images/08impossible.bmp,,,,,,,,,,,,,,,,d,impossible,288,288,216,144,72,0,288,216,144,72,0,288,216,144,72,0,216,216,144,72,0,288,216,144,72,0,288,216,144,72,0,288,5f639b571cb2830a931bc80e,60464aa8c5672f0eaf45dbc0,2021-03-08_16h04.37.448,Impossible2021,2020.1.3,Win32,60,60462d2f8138f40887a79fc4,,,d,1,1.67323,0,65,65,8,1,1,,
,,,,,,,,,,,,,,,,,,,,,,images/38impossible.bmp,images/38impossible.bmp,,,,,,,,,,,,,,,images/38impossible.bmp,,,,,,,,,,,,,,s,impossible,72,72,0,288,216,144,72,0,288,216,144,72,0,288,216,144,72,72,0,288,216,144,72,0,288,216,144,72,0,288,216,144,5f639b571cb2830a931bc80e,60464aa8c5672f0eaf45dbc0,2021-03-08_16h04.37.448,Impossible2021,2020.1.3,Win32,60,60462d2f8138f40887a79fc4,,,s,1,1.14124,0,66,66,36,1,2,,
,,,,,,,,,,,,,,,,,,,,,,,,,,,images/03possible.bmp,images/03possible.bmp,images/03possible.bmp,images/03possible.bmp,,,,,,,,,,,,,,,,images/03possible.bmp,,,,,,d,possible,72,72,0,288,216,144,72,0,288,216,144,72,0,288,216,144,0,0,288,216,144,72,0,288,216,144,72,0,288,216,144,72,5f639b571cb2830a931bc80e,60464aa8c5672f0eaf45dbc0,2021-03-08_16h04.37.448,Impossible2021,2020.1.3,Win32,60,60462d2f8138f40887a79fc4,,,s,0,0.99443,0,67,67,78,1,4,,
,,,,,,,,,,,,,,,,,,,,,,images/25possible.bmp,images/25possible.bmp,,,,,,,,,,,,,,,,images/25possible.bmp,,,,,,,,,,,,,s,possible,72,72,0,288,216,144,72,0,288,216,144,72,0,288,216,144,72,72,0,288,216,144,72,0,288,216,144,72,0,288,216,144,5f639b571cb2830a931bc80e,60464aa8c5672f0eaf45dbc0,2021-03-08_16h04.37.448,Impossible2021,2020.1.3,Win32,60,60462d2f8138f40887a79fc4,,,s,1,2.819305,0,68,68,29,1,2,,
,,,,,,,,,,,,,,,,,,,,,,,,images/44possible.bmp,images/44possible.bmp,images/44possible.bmp,,,,,,,,,,,,,,,,images/44possible.bmp,,,,,,,,,,s,possible,216,216,144,72,0,288,216,144,72,0,288,216,144,72,0,288,216,216,144,72,0,288,216,144,72,0,288,216,144,72,0,288,5f639b571cb2830a931bc80e,60464aa8c5672f0eaf45dbc0,2021-03-08_16h04.37.448,Impossible2021,2020.1.3,Win32,60,60462d2f8138f40887a79fc4,,,s,1,1.013755,0,69,69,62,1,3,,
,,,,,,,,,,,,,,,,,,,,,,images/08possible.bmp,images/08possible.bmp,,,,,,,,,,,,,,,images/08possible.bmp,,,,,,,,,,,,,,d,possible,288,288,216,144,72,0,288,216,144,72,0,288,216,144,72,0,216,216,144,72,0,288,216,144,72,0,288,216,144,72,0,288,5f639b571cb2830a931bc80e,60464aa8c5672f0eaf45dbc0,2021-03-08_16h04.37.448,Impossible2021,2020.1.3,Win32,60,60462d2f8138f40887a79fc4,,,d,1,0.745865,0,70,70,32,1,2,,
,,,,,,,,,,,,,,,,,,,,,,images/24possible.bmp,images/24possible.bmp,,,,,,,,,,,,,,,images/24possible.bmp,,,,,,,,,,,,,,s,possible,0,0,288,216,144,72,0,288,216,144,72,0,288,216,144,72,0,0,288,216,144,72,0,288,216,144,72,0,288,216,144,72,5f639b571cb2830a931bc80e,60464aa8c5672f0eaf45dbc0,2021-03-08_16h04.37.448,Impossible2021,2020.1.3,Win32,60,60462d2f8138f40887a79fc4,,,s,1,0.65105,0,71,71,28,1,2,,
,,,,,,,,,,,,,,,,,,,,,,,,,,,,,,,images/25impossible.bmp,images/25impossible.bmp,images/25impossible.bmp,images/25impossible.bmp,images/25impossible.bmp,,,,,,,,,,,,,images/25impossible.bmp,,,,s,impossible,72,72,0,288,216,144,72,0,288,216,144,72,0,288,216,144,72,72,0,288,216,144,72,0,288,216,144,72,0,288,216,144,5f639b571cb2830a931bc80e,60464aa8c5672f0eaf45dbc0,2021-03-08_16h04.37.448,Impossible2021,2020.1.3,Win32,60,60462d2f8138f40887a79fc4,,,d,0,1.62161,0,72,72,101,1,5,,
,,,,,,,,,,,,,,,,,,,,,,,,,,,,,,,images/24impossible.bmp,images/24impossible.bmp,images/24impossible.bmp,images/24impossible.bmp,images/24impossible.bmp,,,,,,,,,,,,images/24impossible.bmp,,,,,s,impossible,0,0,288,216,144,72,0,288,216,144,72,0,288,216,144,72,0,0,288,216,144,72,0,288,216,144,72,0,288,216,144,72,5f639b571cb2830a931bc80e,60464aa8c5672f0eaf45dbc0,2021-03-08_16h04.37.448,Impossible2021,2020.1.3,Win32,60,60462d2f8138f40887a79fc4,,,d,0,1.212335,0,73,73,100,1,5,,
,,,,,,,,,,,,,,,,,,,,,,,,,,,,,,,images/08impossible.bmp,images/08impossible.bmp,images/08impossible.bmp,images/08impossible.bmp,images/08impossible.bmp,,,,,,,,,,,,,,,,images/08impossible.bmp,s,impossible,288,288,216,144,72,0,288,216,144,72,0,288,216,144,72,0,288,288,216,144,72,0,288,216,144,72,0,288,216,144,72,0,5f639b571cb2830a931bc80e,60464aa8c5672f0eaf45dbc0,2021-03-08_16h04.37.448,Impossible2021,2020.1.3,Win32,60,60462d2f8138f40887a79fc4,,,d,0,2.387125,0,74,74,98,1,5,,
,,,,,,,,,,,,,,,,,,,,,,,,,,,images/08possible.bmp,images/08possible.bmp,images/08possible.bmp,images/08possible.bmp,,,,,,,,,,,,,,,images/08possible.bmp,,,,,,,s,possible,288,288,216,144,72,0,288,216,144,72,0,288,216,144,72,0,288,288,216,144,72,0,288,216,144,72,0,288,216,144,72,0,5f639b571cb2830a931bc80e,60464aa8c5672f0eaf45dbc0,2021-03-08_16h04.37.448,Impossible2021,2020.1.3,Win32,60,60462d2f8138f40887a79fc4,,,s,1,1.59456,0,75,75,74,1,4,,
,,,,,,,,,,,,,,,,,,,,,,,,,,,,,,,images/22impossible.bmp,images/22impossible.bmp,images/22impossible.bmp,images/22impossible.bmp,images/22impossible.bmp,,,,,,,,,,,,,,images/22impossible.bmp,,,d,impossible,216,216,144,72,0,288,216,144,72,0,288,216,144,72,0,288,144,144,72,0,288,216,144,72,0,288,216,144,72,0,288,216,5f639b571cb2830a931bc80e,60464aa8c5672f0eaf45dbc0,2021-03-08_16h04.37.448,Impossible2021,2020.1.3,Win32,60,60462d2f8138f40887a79fc4,,,d,1,0.791535,0,76,76,105,1,5,,
,,,,,,,,,,,,,,,,,,,,,,,,,,,images/44impossible.bmp,images/44impossible.bmp,images/44impossible.bmp,images/44impossible.bmp,,,,,,,,,,,,,,,images/44impossible.bmp,,,,,,,s,impossible,216,216,144,72,0,288,216,144,72,0,288,216,144,72,0,288,216,216,144,72,0,288,216,144,72,0,288,216,144,72,0,288,5f639b571cb2830a931bc80e,60464aa8c5672f0eaf45dbc0,2021-03-08_16h04.37.448,Impossible2021,2020.1.3,Win32,60,60462d2f8138f40887a79fc4,,,s,1,0.96251,0,77,77,86,1,4,,
,,,,,,,,,,,,,,,,,,,,,,,,,,,,,,,images/65possible.bmp,images/65possible.bmp,images/65possible.bmp,images/65possible.bmp,images/65possible.bmp,,,,,,,,,,,,,images/65possible.bmp,,,,d,possible,144,144,72,0,288,216,144,72,0,288,216,144,72,0,288,216,72,72,0,288,216,144,72,0,288,216,144,72,0,288,216,144,5f639b571cb2830a931bc80e,60464aa8c5672f0eaf45dbc0,2021-03-08_16h04.37.448,Impossible2021,2020.1.3,Win32,60,60462d2f8138f40887a79fc4,,,d,1,1.28767,0,78,78,118,1,5,,
,,,,,,,,,,,,,,,,,,,,,,images/44impossible.bmp,images/44impossible.bmp,,,,,,,,,,,,,,,images/44impossible.bmp,,,,,,,,,,,,,,d,impossible,216,216,144,72,0,288,216,144,72,0,288,216,144,72,0,288,144,144,72,0,288,216,144,72,0,288,216,144,72,0,288,216,5f639b571cb2830a931bc80e,60464aa8c5672f0eaf45dbc0,2021-03-08_16h04.37.448,Impossible2021,2020.1.3,Win32,60,60462d2f8138f40887a79fc4,,,d,1,0.83509,0,79,79,44,1,2,,
,,,,,,,,,,,,,,,,,,,,,,,,images/69possible.bmp,images/69possible.bmp,images/69possible.bmp,,,,,,,,,,,,,,,,images/69possible.bmp,,,,,,,,,,s,possible,216,216,144,72,0,288,216,144,72,0,288,216,144,72,0,288,216,216,144,72,0,288,216,144,72,0,288,216,144,72,0,288,5f639b571cb2830a931bc80e,60464aa8c5672f0eaf45dbc0,2021-03-08_16h04.37.448,Impossible2021,2020.1.3,Win32,60,60462d2f8138f40887a79fc4,,,d,0,2.261895,0,80,80,65,1,3,,
,,,,,,,,,,,,,,,,,,,,,,,,images/25impossible.bmp,images/25impossible.bmp,images/25impossible.bmp,,,,,,,,,,,,,,images/25impossible.bmp,,,,,,,,,,,,d,impossible,72,72,0,288,216,144,72,0,288,216,144,72,0,288,216,144,0,0,288,216,144,72,0,288,216,144,72,0,288,216,144,72,5f639b571cb2830a931bc80e,60464aa8c5672f0eaf45dbc0,2021-03-08_16h04.37.448,Impossible2021,2020.1.3,Win32,60,60462d2f8138f40887a79fc4,,,s,0,1.218705,0,81,81,59,1,3,,
,,,,,,,,,,,,,,,,,,,,,,,,,,,images/24possible.bmp,images/24possible.bmp,images/24possible.bmp,images/24possible.bmp,,,,,,,,,,,,,,,,images/24possible.bmp,,,,,,d,possible,0,0,288,216,144,72,0,288,216,144,72,0,288,216,144,72,288,288,216,144,72,0,288,216,144,72,0,288,216,144,72,0,5f639b571cb2830a931bc80e,60464aa8c5672f0eaf45dbc0,2021-03-08_16h04.37.448,Impossible2021,2020.1.3,Win32,60,60462d2f8138f40887a79fc4,,,d,1,1.37224,0,82,82,82,1,4,,
,,,,,,,,,,,,,,,,,,,,,,images/55impossible.bmp,images/55impossible.bmp,,,,,,,,,,,,,,,,images/55impossible.bmp,,,,,,,,,,,,,s,impossible,72,72,0,288,216,144,72,0,288,216,144,72,0,288,216,144,72,72,0,288,216,144,72,0,288,216,144,72,0,288,216,144,5f639b571cb2830a931bc80e,60464aa8c5672f0eaf45dbc0,2021-03-08_16h04.37.448,Impossible2021,2020.1.3,Win32,60,60462d2f8138f40887a79fc4,,,s,1,1.001525,0,83,83,39,1,2,,
,,,,,,,,,,,,,,,,,,,,,,,,images/69possible.bmp,images/69possible.bmp,images/69possible.bmp,,,,,,,,,,,,,,images/69possible.bmp,,,,,,,,,,,,d,possible,216,216,144,72,0,288,216,144,72,0,288,216,144,72,0,288,144,144,72,0,288,216,144,72,0,288,216,144,72,0,288,216,5f639b571cb2830a931bc80e,60464aa8c5672f0eaf45dbc0,2021-03-08_16h04.37.448,Impossible2021,2020.1.3,Win32,60,60462d2f8138f40887a79fc4,,,d,1,0.843905,0,84,84,71,1,3,,
,,,,,,,,,,,,,,,,,,,,,,,,,,,,,,,images/03impossible.bmp,images/03impossible.bmp,images/03impossible.bmp,images/03impossible.bmp,images/03impossible.bmp,,,,,,,,,,,,,images/03impossible.bmp,,,,s,impossible,72,72,0,288,216,144,72,0,288,216,144,72,0,288,216,144,72,72,0,288,216,144,72,0,288,216,144,72,0,288,216,144,5f639b571cb2830a931bc80e,60464aa8c5672f0eaf45dbc0,2021-03-08_16h04.37.448,Impossible2021,2020.1.3,Win32,60,60462d2f8138f40887a79fc4,,,d,0,1.101375,0,85,85,96,1,5,,
,,,,,,,,,,,,,,,,,,,,,,,,,,,images/55impossible.bmp,images/55impossible.bmp,images/55impossible.bmp,images/55impossible.bmp,,,,,,,,,,,,,,,,images/55impossible.bmp,,,,,,d,impossible,72,72,0,288,216,144,72,0,288,216,144,72,0,288,216,144,0,0,288,216,144,72,0,288,216,144,72,0,288,216,144,72,5f639b571cb2830a931bc80e,60464aa8c5672f0eaf45dbc0,2021-03-08_16h04.37.448,Impossible2021,2020.1.3,Win32,60,60462d2f8138f40887a79fc4,,,d,1,1.18282,0,86,86,93,1,4,,
,,,,,,,,,,,,,,,,,,,,,,,,images/44possible.bmp,images/44possible.bmp,images/44possible.bmp,,,,,,,,,,,,,,images/44possible.bmp,,,,,,,,,,,,d,possible,216,216,144,72,0,288,216,144,72,0,288,216,144,72,0,288,144,144,72,0,288,216,144,72,0,288,216,144,72,0,288,216,5f639b571cb2830a931bc80e,60464aa8c5672f0eaf45dbc0,2021-03-08_16h04.37.448,Impossible2021,2020.1.3,Win32,60,60462d2f8138f40887a79fc4,,,d,1,1.594595,0,87,87,68,1,3,,
,,,,,,,,,,,,,,,,,,,,images/05impossible.bmp,,,,,,,,,,,,,,,,images/05impossible.bmp,,,,,,,,,,,,,,,,s,impossible,216,216,144,72,0,288,216,144,72,0,288,216,144,72,0,288,216,216,144,72,0,288,216,144,72,0,288,216,144,72,0,288,5f639b571cb2830a931bc80e,60464aa8c5672f0eaf45dbc0,2021-03-08_16h04.37.448,Impossible2021,2020.1.3,Win32,60,60462d2f8138f40887a79fc4,,,s,1,3.875975,0,88,88,1,1,1,,
,,,,,,,,,,,,,,,,,,,,,,images/44impossible.bmp,images/44impossible.bmp,,,,,,,,,,,,,,,images/44impossible.bmp,,,,,,,,,,,,,,s,impossible,216,216,144,72,0,288,216,144,72,0,288,216,144,72,0,288,216,216,144,72,0,288,216,144,72,0,288,216,144,72,0,288,5f639b571cb2830a931bc80e,60464aa8c5672f0eaf45dbc0,2021-03-08_16h04.37.448,Impossible2021,2020.1.3,Win32,60,60462d2f8138f40887a79fc4,,,s,1,0.691015,0,89,89,38,1,2,,
,,,,,,,,,,,,,,,,,,,,images/69possible.bmp,,,,,,,,,,,,,,,,images/69possible.bmp,,,,,,,,,,,,,,,,d,possible,216,216,144,72,0,288,216,144,72,0,288,216,144,72,0,288,144,144,72,0,288,216,144,72,0,288,216,144,72,0,288,216,5f639b571cb2830a931bc80e,60464aa8c5672f0eaf45dbc0,2021-03-08_16h04.37.448,Impossible2021,2020.1.3,Win32,60,60462d2f8138f40887a79fc4,,,d,1,0.57361,0,90,90,23,1,1,,
,,,,,,,,,,,,,,,,,,,,images/38possible.bmp,,,,,,,,,,,,,,,,images/38possible.bmp,,,,,,,,,,,,,,,,s,possible,72,72,0,288,216,144,72,0,288,216,144,72,0,288,216,144,72,72,0,288,216,144,72,0,288,216,144,72,0,288,216,144,5f639b571cb2830a931bc80e,60464aa8c5672f0eaf45dbc0,2021-03-08_16h04.37.448,Impossible2021,2020.1.3,Win32,60,60462d2f8138f40887a79fc4,,,s,1,0.54642,0,91,91,12,1,1,,
,,,,,,,,,,,,,,,,,,,,,,,,,,,images/38impossible.bmp,images/38impossible.bmp,images/38impossible.bmp,images/38impossible.bmp,,,,,,,,,,,,,images/38impossible.bmp,,,,,,,,,s,impossible,72,72,0,288,216,144,72,0,288,216,144,72,0,288,216,144,72,72,0,288,216,144,72,0,288,216,144,72,0,288,216,144,5f639b571cb2830a931bc80e,60464aa8c5672f0eaf45dbc0,2021-03-08_16h04.37.448,Impossible2021,2020.1.3,Win32,60,60462d2f8138f40887a79fc4,,,d,0,0.643935,0,92,92,84,1,4,,
,,,,,,,,,,,,,,,,,,,,,,images/65impossible.bmp,images/65impossible.bmp,,,,,,,,,,,,,,,images/65impossible.bmp,,,,,,,,,,,,,,s,impossible,144,144,72,0,288,216,144,72,0,288,216,144,72,0,288,216,144,144,72,0,288,216,144,72,0,288,216,144,72,0,288,216,5f639b571cb2830a931bc80e,60464aa8c5672f0eaf45dbc0,2021-03-08_16h04.37.448,Impossible2021,2020.1.3,Win32,60,60462d2f8138f40887a79fc4,,,s,1,0.48256,0,93,93,40,1,2,,
,,,,,,,,,,,,,,,,,,,,,,images/38impossible.bmp,images/38impossible.bmp,,,,,,,,,,,,,,,images/38impossible.bmp,,,,,,,,,,,,,,d,impossible,72,72,0,288,216,144,72,0,288,216,144,72,0,288,216,144,0,0,288,216,144,72,0,288,216,144,72,0,288,216,144,72,5f639b571cb2830a931bc80e,60464aa8c5672f0eaf45dbc0,2021-03-08_16h04.37.448,Impossible2021,2020.1.3,Win32,60,60462d2f8138f40887a79fc4,,,d,1,0.654475,0,94,94,42,1,2,,
,,,,,,,,,,,,,,,,,,,,,,,,,,,,,,,images/55possible.bmp,images/55possible.bmp,images/55possible.bmp,images/55possible.bmp,images/55possible.bmp,,,,,,,,,,,,images/55possible.bmp,,,,,d,possible,72,72,0,288,216,144,72,0,288,216,144,72,0,288,216,144,0,0,288,216,144,72,0,288,216,144,72,0,288,216,144,72,5f639b571cb2830a931bc80e,60464aa8c5672f0eaf45dbc0,2021-03-08_16h04.37.448,Impossible2021,2020.1.3,Win32,60,60462d2f8138f40887a79fc4,,,s,0,0.7498,0,95,95,117,1,5,,
,,,,,,,,,,,,,,,,,,,,,,,,images/24impossible.bmp,images/24impossible.bmp,images/24impossible.bmp,,,,,,,,,,,,,,,images/24impossible.bmp,,,,,,,,,,,s,impossible,0,0,288,216,144,72,0,288,216,144,72,0,288,216,144,72,0,0,288,216,144,72,0,288,216,144,72,0,288,216,144,72,5f639b571cb2830a931bc80e,60464aa8c5672f0eaf45dbc0,2021-03-08_16h04.37.448,Impossible2021,2020.1.3,Win32,60,60462d2f8138f40887a79fc4,,,s,1,0.5177,0,96,96,52,1,3,,
,,,,,,,,,,,,,,,,,,,,images/42possible.bmp,,,,,,,,,,,,,,,,images/42possible.bmp,,,,,,,,,,,,,,,,d,possible,144,144,72,0,288,216,144,72,0,288,216,144,72,0,288,216,72,72,0,288,216,144,72,0,288,216,144,72,0,288,216,144,5f639b571cb2830a931bc80e,60464aa8c5672f0eaf45dbc0,2021-03-08_16h04.37.448,Impossible2021,2020.1.3,Win32,60,60462d2f8138f40887a79fc4,,,d,1,0.60993,0,97,97,19,1,1,,
,,,,,,,,,,,,,,,,,,,,,,,,images/38possible.bmp,images/38possible.bmp,images/38possible.bmp,,,,,,,,,,,,,,,images/38possible.bmp,,,,,,,,,,,d,possible,72,72,0,288,216,144,72,0,288,216,144,72,0,288,216,144,0,0,288,216,144,72,0,288,216,144,72,0,288,216,144,72,5f639b571cb2830a931bc80e,60464aa8c5672f0eaf45dbc0,2021-03-08_16h04.37.448,Impossible2021,2020.1.3,Win32,60,60462d2f8138f40887a79fc4,,,s,0,0.40695,0,98,98,66,1,3,,
,,,,,,,,,,,,,,,,,,,,,,,,images/42possible.bmp,images/42possible.bmp,images/42possible.bmp,,,,,,,,,,,,,,,,images/42possible.bmp,,,,,,,,,,s,possible,144,144,72,0,288,216,144,72,0,288,216,144,72,0,288,216,144,144,72,0,288,216,144,72,0,288,216,144,72,0,288,216,5f639b571cb2830a931bc80e,60464aa8c5672f0eaf45dbc0,2021-03-08_16h04.37.448,Impossible2021,2020.1.3,Win32,60,60462d2f8138f40887a79fc4,,,s,1,2.898185,0,99,99,61,1,3,,
,,,,,,,,,,,,,,,,,,,,,images/65possible.bmp,,,,,,,,,,,,,,,,images/65possible.bmp,,,,,,,,,,,,,,,d,possible,144,144,72,0,288,216,144,72,0,288,216,144,72,0,288,216,72,72,0,288,216,144,72,0,288,216,144,72,0,288,216,144,5f639b571cb2830a931bc80e,60464aa8c5672f0eaf45dbc0,2021-03-08_16h04.37.448,Impossible2021,2020.1.3,Win32,60,60462d2f8138f40887a79fc4,,,d,1,3.322775,0,100,100,22,1,1,,
,,,,,,,,,,,,,,,,,,,,,,,,images/55possible.bmp,images/55possible.bmp,images/55possible.bmp,,,,,,,,,,,,,,images/55possible.bmp,,,,,,,,,,,,s,possible,72,72,0,288,216,144,72,0,288,216,144,72,0,288,216,144,72,72,0,288,216,144,72,0,288,216,144,72,0,288,216,144,5f639b571cb2830a931bc80e,60464aa8c5672f0eaf45dbc0,2021-03-08_16h04.37.448,Impossible2021,2020.1.3,Win32,60,60462d2f8138f40887a79fc4,,,s,1,1.24051,0,101,101,63,1,3,,
,,,,,,,,,,,,,,,,,,,,,,,,,,,,,,,images/05impossible.bmp,images/05impossible.bmp,images/05impossible.bmp,images/05impossible.bmp,images/05impossible.bmp,,,,,,,,,,,,,,,images/05impossible.bmp,,s,impossible,216,216,144,72,0,288,216,144,72,0,288,216,144,72,0,288,216,216,144,72,0,288,216,144,72,0,288,216,144,72,0,288,5f639b571cb2830a931bc80e,60464aa8c5672f0eaf45dbc0,2021-03-08_16h04.37.448,Impossible2021,2020.1.3,Win32,60,60462d2f8138f40887a79fc4,,,d,0,0.121615,0,102,102,97,1,5,,
,,,,,,,,,,,,,,,,,,,,images/55possible.bmp,,,,,,,,,,,,,,,,images/55possible.bmp,,,,,,,,,,,,,,,,d,possible,72,72,0,288,216,144,72,0,288,216,144,72,0,288,216,144,0,0,288,216,144,72,0,288,216,144,72,0,288,216,144,72,5f639b571cb2830a931bc80e,60464aa8c5672f0eaf45dbc0,2021-03-08_16h04.37.448,Impossible2021,2020.1.3,Win32,60,60462d2f8138f40887a79fc4,,,s,0,0.941825,0,103,103,21,1,1,,
,,,,,,,,,,,,,,,,,,,,,,,,,,,images/03possible.bmp,images/03possible.bmp,images/03possible.bmp,images/03possible.bmp,,,,,,,,,,,,,,images/03possible.bmp,,,,,,,,s,possible,72,72,0,288,216,144,72,0,288,216,144,72,0,288,216,144,72,72,0,288,216,144,72,0,288,216,144,72,0,288,216,144,5f639b571cb2830a931bc80e,60464aa8c5672f0eaf45dbc0,2021-03-08_16h04.37.448,Impossible2021,2020.1.3,Win32,60,60462d2f8138f40887a79fc4,,,s,1,0.88632,0,104,104,72,1,4,,
,,,,,,,,,,,,,,,,,,,,,,,,images/08impossible.bmp,images/08impossible.bmp,images/08impossible.bmp,,,,,,,,,,,,,,,images/08impossible.bmp,,,,,,,,,,,s,impossible,288,288,216,144,72,0,288,216,144,72,0,288,216,144,72,0,288,288,216,144,72,0,288,216,144,72,0,288,216,144,72,0,5f639b571cb2830a931bc80e,60464aa8c5672f0eaf45dbc0,2021-03-08_16h04.37.448,Impossible2021,2020.1.3,Win32,60,60462d2f8138f40887a79fc4,,,s,1,1.40943,0,105,105,50,1,3,,
,,,,,,,,,,,,,,,,,,,,,,,,,,,,,,,images/44possible.bmp,images/44possible.bmp,images/44possible.bmp,images/44possible.bmp,images/44possible.bmp,,,,,,,,,,,,,,images/44possible.bmp,,,s,possible,216,216,144,72,0,288,216,144,72,0,288,216,144,72,0,288,216,216,144,72,0,288,216,144,72,0,288,216,144,72,0,288,5f639b571cb2830a931bc80e,60464aa8c5672f0eaf45dbc0,2021-03-08_16h04.37.448,Impossible2021,2020.1.3,Win32,60,60462d2f8138f40887a79fc4,,,s,1,1.422575,0,106,106,110,1,5,,
,,,,,,,,,,,,,,,,,,,,,,,,images/03impossible.bmp,images/03impossible.bmp,images/03impossible.bmp,,,,,,,,,,,,,,,images/03impossible.bmp,,,,,,,,,,,s,impossible,72,72,0,288,216,144,72,0,288,216,144,72,0,288,216,144,72,72,0,288,216,144,72,0,288,216,144,72,0,288,216,144,5f639b571cb2830a931bc80e,60464aa8c5672f0eaf45dbc0,2021-03-08_16h04.37.448,Impossible2021,2020.1.3,Win32,60,60462d2f8138f40887a79fc4,,,d,0,0.13583,0,107,107,48,1,3,,
,,,,,,,,,,,,,,,,,,,,,,,,,,,images/42impossible.bmp,images/42impossible.bmp,images/42impossible.bmp,images/42impossible.bmp,,,,,,,,,,,,,,,,images/42impossible.bmp,,,,,,d,impossible,144,144,72,0,288,216,144,72,0,288,216,144,72,0,288,216,72,72,0,288,216,144,72,0,288,216,144,72,0,288,216,144,5f639b571cb2830a931bc80e,60464aa8c5672f0eaf45dbc0,2021-03-08_16h04.37.448,Impossible2021,2020.1.3,Win32,60,60462d2f8138f40887a79fc4,,,d,1,1.00379,0,108,108,91,1,4,,
,,,,,,,,,,,,,,,,,,,,,,,,images/08impossible.bmp,images/08impossible.bmp,images/08impossible.bmp,,,,,,,,,,,,,,,images/08impossible.bmp,,,,,,,,,,,d,impossible,288,288,216,144,72,0,288,216,144,72,0,288,216,144,72,0,216,216,144,72,0,288,216,144,72,0,288,216,144,72,0,288,5f639b571cb2830a931bc80e,60464aa8c5672f0eaf45dbc0,2021-03-08_16h04.37.448,Impossible2021,2020.1.3,Win32,60,60462d2f8138f40887a79fc4,,,s,0,2.043965,0,109,109,56,1,3,,
,,,,,,,,,,,,,,,,,,,,,,,,,,,,,,,images/44possible.bmp,images/44possible.bmp,images/44possible.bmp,images/44possible.bmp,images/44possible.bmp,,,,,,,,,,,,,,images/44possible.bmp,,,d,possible,216,216,144,72,0,288,216,144,72,0,288,216,144,72,0,288,144,144,72,0,288,216,144,72,0,288,216,144,72,0,288,216,5f639b571cb2830a931bc80e,60464aa8c5672f0eaf45dbc0,2021-03-08_16h04.37.448,Impossible2021,2020.1.3,Win32,60,60462d2f8138f40887a79fc4,,,d,1,0.992065,0,110,110,116,1,5,,
,,,,,,,,,,,,,,,,,,,,,,,,,,,,,,,images/38possible.bmp,images/38possible.bmp,images/38possible.bmp,images/38possible.bmp,images/38possible.bmp,,,,,,,,,,,,images/38possible.bmp,,,,,s,possible,72,72,0,288,216,144,72,0,288,216,144,72,0,288,216,144,72,72,0,288,216,144,72,0,288,216,144,72,0,288,216,144,5f639b571cb2830a931bc80e,60464aa8c5672f0eaf45dbc0,2021-03-08_16h04.37.448,Impossible2021,2020.1.3,Win32,60,60462d2f8138f40887a79fc4,,,s,1,1.73543,0,111,111,108,1,5,,
,,,,,,,,,,,,,,,,,,,,,,images/69impossible.bmp,images/69impossible.bmp,,,,,,,,,,,,,,,,images/69impossible.bmp,,,,,,,,,,,,,s,impossible,216,216,144,72,0,288,216,144,72,0,288,216,144,72,0,288,216,216,144,72,0,288,216,144,72,0,288,216,144,72,0,288,5f639b571cb2830a931bc80e,60464aa8c5672f0eaf45dbc0,2021-03-08_16h04.37.448,Impossible2021,2020.1.3,Win32,60,60462d2f8138f40887a79fc4,,,s,1,2.14094,0,112,112,41,1,2,,
,,,,,,,,,,,,,,,,,,,,,,,,images/03impossible.bmp,images/03impossible.bmp,images/03impossible.bmp,,,,,,,,,,,,,,,images/03impossible.bmp,,,,,,,,,,,d,impossible,72,72,0,288,216,144,72,0,288,216,144,72,0,288,216,144,0,0,288,216,144,72,0,288,216,144,72,0,288,216,144,72,5f639b571cb2830a931bc80e,60464aa8c5672f0eaf45dbc0,2021-03-08_16h04.37.448,Impossible2021,2020.1.3,Win32,60,60462d2f8138f40887a79fc4,,,d,1,1.10999,0,113,113,54,1,3,,
,,,,,,,,,,,,,,,,,,,,,,,,,,,,,,,images/42possible.bmp,images/42possible.bmp,images/42possible.bmp,images/42possible.bmp,images/42possible.bmp,,,,,,,,,,,,,,,images/42possible.bmp,,d,possible,144,144,72,0,288,216,144,72,0,288,216,144,72,0,288,216,72,72,0,288,216,144,72,0,288,216,144,72,0,288,216,144,5f639b571cb2830a931bc80e,60464aa8c5672f0eaf45dbc0,2021-03-08_16h04.37.448,Impossible2021,2020.1.3,Win32,60,60462d2f8138f40887a79fc4,,,s,0,0.8072,0,114,114,115,1,5,,
,,,,,,,,,,,,,,,,,,,,,,,,,,,,,,,images/24impossible.bmp,images/24impossible.bmp,images/24impossible.bmp,images/24impossible.bmp,images/24impossible.bmp,,,,,,,,,,,,,,,,images/24impossible.bmp,d,impossible,0,0,288,216,144,72,0,288,216,144,72,0,288,216,144,72,288,288,216,144,72,0,288,216,144,72,0,288,216,144,72,0,5f639b571cb2830a931bc80e,60464aa8c5672f0eaf45dbc0,2021-03-08_16h04.37.448,Impossible2021,2020.1.3,Win32,60,60462d2f8138f40887a79fc4,,,d,1,1.1901,0,115,115,106,1,5,,
,,,,,,,,,,,,,,,,,,,,,,,,images/05impossible.bmp,images/05impossible.bmp,images/05impossible.bmp,,,,,,,,,,,,,,,,images/05impossible.bmp,,,,,,,,,,s,impossible,216,216,144,72,0,288,216,144,72,0,288,216,144,72,0,288,216,216,144,72,0,288,216,144,72,0,288,216,144,72,0,288,5f639b571cb2830a931bc80e,60464aa8c5672f0eaf45dbc0,2021-03-08_16h04.37.448,Impossible2021,2020.1.3,Win32,60,60462d2f8138f40887a79fc4,,,s,1,1.48308,0,116,116,49,1,3,,
,,,,,,,,,,,,,,,,,,,,,,images/55impossible.bmp,images/55impossible.bmp,,,,,,,,,,,,,,,,images/55impossible.bmp,,,,,,,,,,,,,d,impossible,72,72,0,288,216,144,72,0,288,216,144,72,0,288,216,144,0,0,288,216,144,72,0,288,216,144,72,0,288,216,144,72,5f639b571cb2830a931bc80e,60464aa8c5672f0eaf45dbc0,2021-03-08_16h04.37.448,Impossible2021,2020.1.3,Win32,60,60462d2f8138f40887a79fc4,,,d,1,0.974415,0,117,117,45,1,2,,
,,,,,,,,,,,,,,,,,,,,,images/42possible.bmp,,,,,,,,,,,,,,,,images/42possible.bmp,,,,,,,,,,,,,,,s,possible,144,144,72,0,288,216,144,72,0,288,216,144,72,0,288,216,144,144,72,0,288,216,144,72,0,288,216,144,72,0,288,216,5f639b571cb2830a931bc80e,60464aa8c5672f0eaf45dbc0,2021-03-08_16h04.37.448,Impossible2021,2020.1.3,Win32,60,60462d2f8138f40887a79fc4,,,s,1,1.585335,0,118,118,13,1,1,,
,,,,,,,,,,,,,,,,,,,,,,images/42impossible.bmp,images/42impossible.bmp,,,,,,,,,,,,,,,,images/42impossible.bmp,,,,,,,,,,,,,d,impossible,144,144,72,0,288,216,144,72,0,288,216,144,72,0,288,216,72,72,0,288,216,144,72,0,288,216,144,72,0,288,216,144,5f639b571cb2830a931bc80e,60464aa8c5672f0eaf45dbc0,2021-03-08_16h04.37.448,Impossible2021,2020.1.3,Win32,60,60462d2f8138f40887a79fc4,,,s,0,1.656,0,119,119,43,1,2,,
,,,,,,,,,,,,,,,,,,,,,,,,,,,,,,,,,,,,,,,,,,,,,,,,,,,,,,,,,,,,,,,,,,,,,,,,,,,,,,,,,,,,,,5f639b571cb2830a931bc80e,60464aa8c5672f0eaf45dbc0,2021-03-08_16h04.37.448,Impossible2021,2020.1.3,Win32,60,60462d2f8138f40887a79fc4,,,,,,,,,,,,k,4.742255
