consent_key.keys,consent_key.rt,intro_key_2.keys,intro_key_2.rt,key_resp_4.keys,key_resp_4.rt,key_resp_5.keys,key_resp_5.rt,key_resp_6.keys,key_resp_6.rt,key_resp_7.keys,key_resp_7.rt,keyTraining.keys,keyTraining.corr,keyTraining.rt,practiceloop.thisRepN,practiceloop.thisTrialN,practiceloop.thisN,practiceloop.thisIndex,practiceloop.ran,s11,s1_1,s12,s22,s13,s23,s33,s14,s24,s34,s44,s15,s25,s35,s45,s55,t11,t1_1,t12,t22,t13,t23,t33,t14,t24,t34,t44,t15,t25,t35,t45,t55,corrans,study,o11,o1_1,o12,o22,o13,o23,o33,o14,o24,o34,o44,o15,o25,o35,o45,o55,ot11,ot1_1,ot12,ot22,ot13,ot23,ot33,ot14,ot24,ot34,ot44,ot15,ot25,ot35,ot45,ot55,participant,session,date,expName,psychopyVersion,OS,frameRate,STUDY_ID,key_resp_2.keys,key_resp_2.rt,key_resp.keys,key_resp.corr,key_resp.rt,testloop.thisRepN,testloop.thisTrialN,testloop.thisN,testloop.thisIndex,testloop.ran,setsize,key_resp_3.keys,key_resp_3.rt
y,26.126335,space,27.018815,space,9.328825,s,5.89863,d,2.043035,space,7.497375,s,1,2.0753,0,0,0,0,1,images/06impossible.bmp,,,,,,,,,,,,,,,,images/06impossible.bmp,,,,,,,,,,,,,,,,s,,0,0,288,216,144,72,0,288,216,144,72,0,288,216,144,72,0,0,288,216,144,72,0,288,216,144,72,0,288,216,144,72,5f9180a9cd707207f8465a19,60464aa7bb53b90dc2530d36,2021-03-08_17h03.07.948,Impossible2021,2020.1.3,Win32,60,60462d2f8138f40887a79fc4,,,,,,,,,,,,,
,,,,,,,,,,,,d,1,0.912855,0,1,1,1,1,,images/06impossible.bmp,,,,,,,,,,,,,,,,images/06impossible.bmp,,,,,,,,,,,,,,,d,,216,216,144,72,0,288,216,144,72,0,288,216,144,72,0,288,144,144,72,0,288,216,144,72,0,288,216,144,72,0,288,216,5f9180a9cd707207f8465a19,60464aa7bb53b90dc2530d36,2021-03-08_17h03.07.948,Impossible2021,2020.1.3,Win32,60,60462d2f8138f40887a79fc4,,,,,,,,,,,,,
,,,,,,,,,,,,s,1,1.262875,0,2,2,2,1,,,images/06impossible.bmp,images/06impossible.bmp,,,,,,,,,,,,,,,,images/06impossible.bmp,,,,,,,,,,,,,s,,288,288,216,144,72,0,288,216,144,72,0,288,216,144,72,0,288,288,216,144,72,0,288,216,144,72,0,288,216,144,72,0,5f9180a9cd707207f8465a19,60464aa7bb53b90dc2530d36,2021-03-08_17h03.07.948,Impossible2021,2020.1.3,Win32,60,60462d2f8138f40887a79fc4,,,,,,,,,,,,,
,,,,,,,,,,,,s,0,1.15099,0,3,3,3,1,,,images/06impossible.bmp,images/06impossible.bmp,,,,,,,,,,,,,,,images/06impossible.bmp,,,,,,,,,,,,,,d,,144,144,72,0,288,216,144,72,0,288,216,144,72,0,288,216,72,72,0,288,216,144,72,0,288,216,144,72,0,288,216,144,5f9180a9cd707207f8465a19,60464aa7bb53b90dc2530d36,2021-03-08_17h03.07.948,Impossible2021,2020.1.3,Win32,60,60462d2f8138f40887a79fc4,,,,,,,,,,,,,
,,,,,,,,,,,,s,1,1.301,0,4,4,4,1,,,,,images/06impossible.bmp,images/06impossible.bmp,images/06impossible.bmp,,,,,,,,,,,,,,images/06impossible.bmp,,,,,,,,,,,,s,,216,216,144,72,0,288,216,144,72,0,288,216,144,72,0,288,216,216,144,72,0,288,216,144,72,0,288,216,144,72,0,288,5f9180a9cd707207f8465a19,60464aa7bb53b90dc2530d36,2021-03-08_17h03.07.948,Impossible2021,2020.1.3,Win32,60,60462d2f8138f40887a79fc4,,,,,,,,,,,,,
,,,,,,,,,,,,d,1,1.12935,0,5,5,5,1,,,,,images/06impossible.bmp,images/06impossible.bmp,images/06impossible.bmp,,,,,,,,,,,,,,,,images/06impossible.bmp,,,,,,,,,,d,,216,216,144,72,0,288,216,144,72,0,288,216,144,72,0,288,144,144,72,0,288,216,144,72,0,288,216,144,72,0,288,216,5f9180a9cd707207f8465a19,60464aa7bb53b90dc2530d36,2021-03-08_17h03.07.948,Impossible2021,2020.1.3,Win32,60,60462d2f8138f40887a79fc4,,,,,,,,,,,,,
,,,,,,,,,,,,,,,,,,,,,,,,,,,,,,,images/08impossible.bmp,images/08impossible.bmp,images/08impossible.bmp,images/08impossible.bmp,images/08impossible.bmp,,,,,,,,,,,,,,,,images/08impossible.bmp,s,impossible,288,288,216,144,72,0,288,216,144,72,0,288,216,144,72,0,288,288,216,144,72,0,288,216,144,72,0,288,216,144,72,0,5f9180a9cd707207f8465a19,60464aa7bb53b90dc2530d36,2021-03-08_17h03.07.948,Impossible2021,2020.1.3,Win32,60,60462d2f8138f40887a79fc4,space,1.69902,d,0,1.660505,0,0,0,98,1,5,,
,,,,,,,,,,,,,,,,,,,,,,,,,,,,,,,images/05impossible.bmp,images/05impossible.bmp,images/05impossible.bmp,images/05impossible.bmp,images/05impossible.bmp,,,,,,,,,,,,,,images/05impossible.bmp,,,d,impossible,216,216,144,72,0,288,216,144,72,0,288,216,144,72,0,288,144,144,72,0,288,216,144,72,0,288,216,144,72,0,288,216,5f9180a9cd707207f8465a19,60464aa7bb53b90dc2530d36,2021-03-08_17h03.07.948,Impossible2021,2020.1.3,Win32,60,60462d2f8138f40887a79fc4,,,s,0,1.82924,0,1,1,103,1,5,,
,,,,,,,,,,,,,,,,,,,,,,images/22possible.bmp,images/22possible.bmp,,,,,,,,,,,,,,,,images/22possible.bmp,,,,,,,,,,,,,s,possible,216,216,144,72,0,288,216,144,72,0,288,216,144,72,0,288,216,216,144,72,0,288,216,144,72,0,288,216,144,72,0,288,5f9180a9cd707207f8465a19,60464aa7bb53b90dc2530d36,2021-03-08_17h03.07.948,Impossible2021,2020.1.3,Win32,60,60462d2f8138f40887a79fc4,,,s,1,1.25944,0,2,2,27,1,2,,
,,,,,,,,,,,,,,,,,,,,,,,,images/25impossible.bmp,images/25impossible.bmp,images/25impossible.bmp,,,,,,,,,,,,,,images/25impossible.bmp,,,,,,,,,,,,d,impossible,72,72,0,288,216,144,72,0,288,216,144,72,0,288,216,144,0,0,288,216,144,72,0,288,216,144,72,0,288,216,144,72,5f9180a9cd707207f8465a19,60464aa7bb53b90dc2530d36,2021-03-08_17h03.07.948,Impossible2021,2020.1.3,Win32,60,60462d2f8138f40887a79fc4,,,d,1,1.49481,0,3,3,59,1,3,,
,,,,,,,,,,,,,,,,,,,,,,,,images/55possible.bmp,images/55possible.bmp,images/55possible.bmp,,,,,,,,,,,,,,,images/55possible.bmp,,,,,,,,,,,d,possible,72,72,0,288,216,144,72,0,288,216,144,72,0,288,216,144,0,0,288,216,144,72,0,288,216,144,72,0,288,216,144,72,5f9180a9cd707207f8465a19,60464aa7bb53b90dc2530d36,2021-03-08_17h03.07.948,Impossible2021,2020.1.3,Win32,60,60462d2f8138f40887a79fc4,,,s,0,1.31238,0,4,4,69,1,3,,
,,,,,,,,,,,,,,,,,,,,,,,,,,,,,,,images/55possible.bmp,images/55possible.bmp,images/55possible.bmp,images/55possible.bmp,images/55possible.bmp,,,,,,,,,,,,,,,,images/55possible.bmp,s,possible,72,72,0,288,216,144,72,0,288,216,144,72,0,288,216,144,72,72,0,288,216,144,72,0,288,216,144,72,0,288,216,144,5f9180a9cd707207f8465a19,60464aa7bb53b90dc2530d36,2021-03-08_17h03.07.948,Impossible2021,2020.1.3,Win32,60,60462d2f8138f40887a79fc4,,,d,0,2.18619,0,5,5,111,1,5,,
,,,,,,,,,,,,,,,,,,,,,,,,images/42possible.bmp,images/42possible.bmp,images/42possible.bmp,,,,,,,,,,,,,,images/42possible.bmp,,,,,,,,,,,,d,possible,144,144,72,0,288,216,144,72,0,288,216,144,72,0,288,216,72,72,0,288,216,144,72,0,288,216,144,72,0,288,216,144,5f9180a9cd707207f8465a19,60464aa7bb53b90dc2530d36,2021-03-08_17h03.07.948,Impossible2021,2020.1.3,Win32,60,60462d2f8138f40887a79fc4,,,s,0,1.41212,0,6,6,67,1,3,,
,,,,,,,,,,,,,,,,,,,,,images/42possible.bmp,,,,,,,,,,,,,,,,images/42possible.bmp,,,,,,,,,,,,,,,s,possible,144,144,72,0,288,216,144,72,0,288,216,144,72,0,288,216,144,144,72,0,288,216,144,72,0,288,216,144,72,0,288,216,5f9180a9cd707207f8465a19,60464aa7bb53b90dc2530d36,2021-03-08_17h03.07.948,Impossible2021,2020.1.3,Win32,60,60462d2f8138f40887a79fc4,,,s,1,1.729685,0,7,7,13,1,1,,
,,,,,,,,,,,,,,,,,,,,,,,,,,,images/38impossible.bmp,images/38impossible.bmp,images/38impossible.bmp,images/38impossible.bmp,,,,,,,,,,,,,,,images/38impossible.bmp,,,,,,,d,impossible,72,72,0,288,216,144,72,0,288,216,144,72,0,288,216,144,0,0,288,216,144,72,0,288,216,144,72,0,288,216,144,72,5f9180a9cd707207f8465a19,60464aa7bb53b90dc2530d36,2021-03-08_17h03.07.948,Impossible2021,2020.1.3,Win32,60,60462d2f8138f40887a79fc4,,,s,0,2.64332,0,8,8,90,1,4,,
,,,,,,,,,,,,,,,,,,,,,,,,,,,,,,,images/22impossible.bmp,images/22impossible.bmp,images/22impossible.bmp,images/22impossible.bmp,images/22impossible.bmp,,,,,,,,,,,,,,images/22impossible.bmp,,,d,impossible,216,216,144,72,0,288,216,144,72,0,288,216,144,72,0,288,144,144,72,0,288,216,144,72,0,288,216,144,72,0,288,216,5f9180a9cd707207f8465a19,60464aa7bb53b90dc2530d36,2021-03-08_17h03.07.948,Impossible2021,2020.1.3,Win32,60,60462d2f8138f40887a79fc4,,,d,1,2.24954,0,9,9,105,1,5,,
,,,,,,,,,,,,,,,,,,,,,images/38possible.bmp,,,,,,,,,,,,,,,,images/38possible.bmp,,,,,,,,,,,,,,,d,possible,72,72,0,288,216,144,72,0,288,216,144,72,0,288,216,144,0,0,288,216,144,72,0,288,216,144,72,0,288,216,144,72,5f9180a9cd707207f8465a19,60464aa7bb53b90dc2530d36,2021-03-08_17h03.07.948,Impossible2021,2020.1.3,Win32,60,60462d2f8138f40887a79fc4,,,d,1,1.472095,0,10,10,18,1,1,,
,,,,,,,,,,,,,,,,,,,,,,,,images/55possible.bmp,images/55possible.bmp,images/55possible.bmp,,,,,,,,,,,,,,images/55possible.bmp,,,,,,,,,,,,s,possible,72,72,0,288,216,144,72,0,288,216,144,72,0,288,216,144,72,72,0,288,216,144,72,0,288,216,144,72,0,288,216,144,5f9180a9cd707207f8465a19,60464aa7bb53b90dc2530d36,2021-03-08_17h03.07.948,Impossible2021,2020.1.3,Win32,60,60462d2f8138f40887a79fc4,,,s,1,0.974445,0,11,11,63,1,3,,
,,,,,,,,,,,,,,,,,,,,,,,,,,,,,,,images/69possible.bmp,images/69possible.bmp,images/69possible.bmp,images/69possible.bmp,images/69possible.bmp,,,,,,,,,,,,,,images/69possible.bmp,,,d,possible,216,216,144,72,0,288,216,144,72,0,288,216,144,72,0,288,144,144,72,0,288,216,144,72,0,288,216,144,72,0,288,216,5f9180a9cd707207f8465a19,60464aa7bb53b90dc2530d36,2021-03-08_17h03.07.948,Impossible2021,2020.1.3,Win32,60,60462d2f8138f40887a79fc4,,,s,0,1.623155,0,12,12,119,1,5,,
,,,,,,,,,,,,,,,,,,,,,,,,,,,images/24possible.bmp,images/24possible.bmp,images/24possible.bmp,images/24possible.bmp,,,,,,,,,,,,,images/24possible.bmp,,,,,,,,,s,possible,0,0,288,216,144,72,0,288,216,144,72,0,288,216,144,72,0,0,288,216,144,72,0,288,216,144,72,0,288,216,144,72,5f9180a9cd707207f8465a19,60464aa7bb53b90dc2530d36,2021-03-08_17h03.07.948,Impossible2021,2020.1.3,Win32,60,60462d2f8138f40887a79fc4,,,s,1,1.25391,0,13,13,76,1,4,,
,,,,,,,,,,,,,,,,,,,,,,images/25possible.bmp,images/25possible.bmp,,,,,,,,,,,,,,,,images/25possible.bmp,,,,,,,,,,,,,s,possible,72,72,0,288,216,144,72,0,288,216,144,72,0,288,216,144,72,72,0,288,216,144,72,0,288,216,144,72,0,288,216,144,5f9180a9cd707207f8465a19,60464aa7bb53b90dc2530d36,2021-03-08_17h03.07.948,Impossible2021,2020.1.3,Win32,60,60462d2f8138f40887a79fc4,,,s,1,1.042345,0,14,14,29,1,2,,
,,,,,,,,,,,,,,,,,,,,,,images/05possible.bmp,images/05possible.bmp,,,,,,,,,,,,,,,,images/05possible.bmp,,,,,,,,,,,,,d,possible,216,216,144,72,0,288,216,144,72,0,288,216,144,72,0,288,144,144,72,0,288,216,144,72,0,288,216,144,72,0,288,216,5f9180a9cd707207f8465a19,60464aa7bb53b90dc2530d36,2021-03-08_17h03.07.948,Impossible2021,2020.1.3,Win32,60,60462d2f8138f40887a79fc4,,,d,1,0.967455,0,15,15,31,1,2,,
,,,,,,,,,,,,,,,,,,,,,,,,,,,images/22possible.bmp,images/22possible.bmp,images/22possible.bmp,images/22possible.bmp,,,,,,,,,,,,,,images/22possible.bmp,,,,,,,,s,possible,216,216,144,72,0,288,216,144,72,0,288,216,144,72,0,288,216,216,144,72,0,288,216,144,72,0,288,216,144,72,0,288,5f9180a9cd707207f8465a19,60464aa7bb53b90dc2530d36,2021-03-08_17h03.07.948,Impossible2021,2020.1.3,Win32,60,60462d2f8138f40887a79fc4,,,s,1,1.007715,0,16,16,75,1,4,,
,,,,,,,,,,,,,,,,,,,,,images/69possible.bmp,,,,,,,,,,,,,,,,images/69possible.bmp,,,,,,,,,,,,,,,s,possible,216,216,144,72,0,288,216,144,72,0,288,216,144,72,0,288,216,216,144,72,0,288,216,144,72,0,288,216,144,72,0,288,5f9180a9cd707207f8465a19,60464aa7bb53b90dc2530d36,2021-03-08_17h03.07.948,Impossible2021,2020.1.3,Win32,60,60462d2f8138f40887a79fc4,,,s,1,1.25147,0,17,17,17,1,1,,
,,,,,,,,,,,,,,,,,,,,,,,,images/38possible.bmp,images/38possible.bmp,images/38possible.bmp,,,,,,,,,,,,,,,images/38possible.bmp,,,,,,,,,,,d,possible,72,72,0,288,216,144,72,0,288,216,144,72,0,288,216,144,0,0,288,216,144,72,0,288,216,144,72,0,288,216,144,72,5f9180a9cd707207f8465a19,60464aa7bb53b90dc2530d36,2021-03-08_17h03.07.948,Impossible2021,2020.1.3,Win32,60,60462d2f8138f40887a79fc4,,,s,0,3.22931,0,18,18,66,1,3,,
,,,,,,,,,,,,,,,,,,,,,,images/38impossible.bmp,images/38impossible.bmp,,,,,,,,,,,,,,,images/38impossible.bmp,,,,,,,,,,,,,,d,impossible,72,72,0,288,216,144,72,0,288,216,144,72,0,288,216,144,0,0,288,216,144,72,0,288,216,144,72,0,288,216,144,72,5f9180a9cd707207f8465a19,60464aa7bb53b90dc2530d36,2021-03-08_17h03.07.948,Impossible2021,2020.1.3,Win32,60,60462d2f8138f40887a79fc4,,,d,1,1.461755,0,19,19,42,1,2,,
,,,,,,,,,,,,,,,,,,,,,,images/55impossible.bmp,images/55impossible.bmp,,,,,,,,,,,,,,,,images/55impossible.bmp,,,,,,,,,,,,,s,impossible,72,72,0,288,216,144,72,0,288,216,144,72,0,288,216,144,72,72,0,288,216,144,72,0,288,216,144,72,0,288,216,144,5f9180a9cd707207f8465a19,60464aa7bb53b90dc2530d36,2021-03-08_17h03.07.948,Impossible2021,2020.1.3,Win32,60,60462d2f8138f40887a79fc4,,,s,1,0.858465,0,20,20,39,1,2,,
,,,,,,,,,,,,,,,,,,,,,,images/24possible.bmp,images/24possible.bmp,,,,,,,,,,,,,,,images/24possible.bmp,,,,,,,,,,,,,,s,possible,0,0,288,216,144,72,0,288,216,144,72,0,288,216,144,72,0,0,288,216,144,72,0,288,216,144,72,0,288,216,144,72,5f9180a9cd707207f8465a19,60464aa7bb53b90dc2530d36,2021-03-08_17h03.07.948,Impossible2021,2020.1.3,Win32,60,60462d2f8138f40887a79fc4,,,s,1,0.871385,0,21,21,28,1,2,,
,,,,,,,,,,,,,,,,,,,,,images/25impossible.bmp,,,,,,,,,,,,,,,,images/25impossible.bmp,,,,,,,,,,,,,,,d,impossible,72,72,0,288,216,144,72,0,288,216,144,72,0,288,216,144,0,0,288,216,144,72,0,288,216,144,72,0,288,216,144,72,5f9180a9cd707207f8465a19,60464aa7bb53b90dc2530d36,2021-03-08_17h03.07.948,Impossible2021,2020.1.3,Win32,60,60462d2f8138f40887a79fc4,,,d,1,1.727775,0,22,22,11,1,1,,
,,,,,,,,,,,,,,,,,,,,,,,,images/22impossible.bmp,images/22impossible.bmp,images/22impossible.bmp,,,,,,,,,,,,,,,,images/22impossible.bmp,,,,,,,,,,s,impossible,216,216,144,72,0,288,216,144,72,0,288,216,144,72,0,288,216,216,144,72,0,288,216,144,72,0,288,216,144,72,0,288,5f9180a9cd707207f8465a19,60464aa7bb53b90dc2530d36,2021-03-08_17h03.07.948,Impossible2021,2020.1.3,Win32,60,60462d2f8138f40887a79fc4,,,s,1,0.805855,0,23,23,51,1,3,,
,,,,,,,,,,,,,,,,,,,,,,,,images/44possible.bmp,images/44possible.bmp,images/44possible.bmp,,,,,,,,,,,,,,images/44possible.bmp,,,,,,,,,,,,d,possible,216,216,144,72,0,288,216,144,72,0,288,216,144,72,0,288,144,144,72,0,288,216,144,72,0,288,216,144,72,0,288,216,5f9180a9cd707207f8465a19,60464aa7bb53b90dc2530d36,2021-03-08_17h03.07.948,Impossible2021,2020.1.3,Win32,60,60462d2f8138f40887a79fc4,,,d,1,1.76105,0,24,24,68,1,3,,
,,,,,,,,,,,,,,,,,,,,,,,,,,,,,,,images/25impossible.bmp,images/25impossible.bmp,images/25impossible.bmp,images/25impossible.bmp,images/25impossible.bmp,,,,,,,,,,,,,images/25impossible.bmp,,,,s,impossible,72,72,0,288,216,144,72,0,288,216,144,72,0,288,216,144,72,72,0,288,216,144,72,0,288,216,144,72,0,288,216,144,5f9180a9cd707207f8465a19,60464aa7bb53b90dc2530d36,2021-03-08_17h03.07.948,Impossible2021,2020.1.3,Win32,60,60462d2f8138f40887a79fc4,,,d,0,2.25241,0,25,25,101,1,5,,
,,,,,,,,,,,,,,,,,,,,,,,,,,,images/05possible.bmp,images/05possible.bmp,images/05possible.bmp,images/05possible.bmp,,,,,,,,,,,,,,,images/05possible.bmp,,,,,,,d,possible,216,216,144,72,0,288,216,144,72,0,288,216,144,72,0,288,144,144,72,0,288,216,144,72,0,288,216,144,72,0,288,216,5f9180a9cd707207f8465a19,60464aa7bb53b90dc2530d36,2021-03-08_17h03.07.948,Impossible2021,2020.1.3,Win32,60,60462d2f8138f40887a79fc4,,,s,0,1.083535,0,26,26,79,1,4,,
,,,,,,,,,,,,,,,,,,,,,,images/69impossible.bmp,images/69impossible.bmp,,,,,,,,,,,,,,,,images/69impossible.bmp,,,,,,,,,,,,,s,impossible,216,216,144,72,0,288,216,144,72,0,288,216,144,72,0,288,216,216,144,72,0,288,216,144,72,0,288,216,144,72,0,288,5f9180a9cd707207f8465a19,60464aa7bb53b90dc2530d36,2021-03-08_17h03.07.948,Impossible2021,2020.1.3,Win32,60,60462d2f8138f40887a79fc4,,,s,1,1.356415,0,27,27,41,1,2,,
,,,,,,,,,,,,,,,,,,,,,,,,,,,,,,,images/38possible.bmp,images/38possible.bmp,images/38possible.bmp,images/38possible.bmp,images/38possible.bmp,,,,,,,,,,,,images/38possible.bmp,,,,,s,possible,72,72,0,288,216,144,72,0,288,216,144,72,0,288,216,144,72,72,0,288,216,144,72,0,288,216,144,72,0,288,216,144,5f9180a9cd707207f8465a19,60464aa7bb53b90dc2530d36,2021-03-08_17h03.07.948,Impossible2021,2020.1.3,Win32,60,60462d2f8138f40887a79fc4,,,s,1,1.765225,0,28,28,108,1,5,,
,,,,,,,,,,,,,,,,,,,,,,,,,,,images/69impossible.bmp,images/69impossible.bmp,images/69impossible.bmp,images/69impossible.bmp,,,,,,,,,,,,,,,,images/69impossible.bmp,,,,,,s,impossible,216,216,144,72,0,288,216,144,72,0,288,216,144,72,0,288,216,216,144,72,0,288,216,144,72,0,288,216,144,72,0,288,5f9180a9cd707207f8465a19,60464aa7bb53b90dc2530d36,2021-03-08_17h03.07.948,Impossible2021,2020.1.3,Win32,60,60462d2f8138f40887a79fc4,,,d,0,1.06824,0,29,29,89,1,4,,
,,,,,,,,,,,,,,,,,,,,images/44possible.bmp,,,,,,,,,,,,,,,,images/44possible.bmp,,,,,,,,,,,,,,,,s,possible,216,216,144,72,0,288,216,144,72,0,288,216,144,72,0,288,216,216,144,72,0,288,216,144,72,0,288,216,144,72,0,288,5f9180a9cd707207f8465a19,60464aa7bb53b90dc2530d36,2021-03-08_17h03.07.948,Impossible2021,2020.1.3,Win32,60,60462d2f8138f40887a79fc4,,,s,1,0.739835,0,30,30,14,1,1,,
,,,,,,,,,,,,,,,,,,,,,,images/08possible.bmp,images/08possible.bmp,,,,,,,,,,,,,,,images/08possible.bmp,,,,,,,,,,,,,,s,possible,288,288,216,144,72,0,288,216,144,72,0,288,216,144,72,0,288,288,216,144,72,0,288,216,144,72,0,288,216,144,72,0,5f9180a9cd707207f8465a19,60464aa7bb53b90dc2530d36,2021-03-08_17h03.07.948,Impossible2021,2020.1.3,Win32,60,60462d2f8138f40887a79fc4,,,s,1,0.97609,0,31,31,26,1,2,,
,,,,,,,,,,,,,,,,,,,,,,images/65impossible.bmp,images/65impossible.bmp,,,,,,,,,,,,,,,images/65impossible.bmp,,,,,,,,,,,,,,d,impossible,144,144,72,0,288,216,144,72,0,288,216,144,72,0,288,216,72,72,0,288,216,144,72,0,288,216,144,72,0,288,216,144,5f9180a9cd707207f8465a19,60464aa7bb53b90dc2530d36,2021-03-08_17h03.07.948,Impossible2021,2020.1.3,Win32,60,60462d2f8138f40887a79fc4,,,s,0,1.50492,0,32,32,46,1,2,,
,,,,,,,,,,,,,,,,,,,,,images/05impossible.bmp,,,,,,,,,,,,,,,,images/05impossible.bmp,,,,,,,,,,,,,,,d,impossible,216,216,144,72,0,288,216,144,72,0,288,216,144,72,0,288,144,144,72,0,288,216,144,72,0,288,216,144,72,0,288,216,5f9180a9cd707207f8465a19,60464aa7bb53b90dc2530d36,2021-03-08_17h03.07.948,Impossible2021,2020.1.3,Win32,60,60462d2f8138f40887a79fc4,,,d,1,0.864145,0,33,33,7,1,1,,
,,,,,,,,,,,,,,,,,,,,,,images/44impossible.bmp,images/44impossible.bmp,,,,,,,,,,,,,,,images/44impossible.bmp,,,,,,,,,,,,,,d,impossible,216,216,144,72,0,288,216,144,72,0,288,216,144,72,0,288,144,144,72,0,288,216,144,72,0,288,216,144,72,0,288,216,5f9180a9cd707207f8465a19,60464aa7bb53b90dc2530d36,2021-03-08_17h03.07.948,Impossible2021,2020.1.3,Win32,60,60462d2f8138f40887a79fc4,,,s,0,2.404405,0,34,34,44,1,2,,
,,,,,,,,,,,,,,,,,,,,,,,,,,,images/65impossible.bmp,images/65impossible.bmp,images/65impossible.bmp,images/65impossible.bmp,,,,,,,,,,,,,,,images/65impossible.bmp,,,,,,,d,impossible,144,144,72,0,288,216,144,72,0,288,216,144,72,0,288,216,72,72,0,288,216,144,72,0,288,216,144,72,0,288,216,144,5f9180a9cd707207f8465a19,60464aa7bb53b90dc2530d36,2021-03-08_17h03.07.948,Impossible2021,2020.1.3,Win32,60,60462d2f8138f40887a79fc4,,,d,1,1.32367,0,35,35,94,1,4,,
,,,,,,,,,,,,,,,,,,,,,,,,images/05impossible.bmp,images/05impossible.bmp,images/05impossible.bmp,,,,,,,,,,,,,,,,images/05impossible.bmp,,,,,,,,,,s,impossible,216,216,144,72,0,288,216,144,72,0,288,216,144,72,0,288,216,216,144,72,0,288,216,144,72,0,288,216,144,72,0,288,5f9180a9cd707207f8465a19,60464aa7bb53b90dc2530d36,2021-03-08_17h03.07.948,Impossible2021,2020.1.3,Win32,60,60462d2f8138f40887a79fc4,,,s,1,0.86619,0,36,36,49,1,3,,
,,,,,,,,,,,,,,,,,,,,images/69possible.bmp,,,,,,,,,,,,,,,,images/69possible.bmp,,,,,,,,,,,,,,,,d,possible,216,216,144,72,0,288,216,144,72,0,288,216,144,72,0,288,144,144,72,0,288,216,144,72,0,288,216,144,72,0,288,216,5f9180a9cd707207f8465a19,60464aa7bb53b90dc2530d36,2021-03-08_17h03.07.948,Impossible2021,2020.1.3,Win32,60,60462d2f8138f40887a79fc4,,,d,1,0.63394,0,37,37,23,1,1,,
,,,,,,,,,,,,,,,,,,,,,,,,,,,images/65impossible.bmp,images/65impossible.bmp,images/65impossible.bmp,images/65impossible.bmp,,,,,,,,,,,,,,,images/65impossible.bmp,,,,,,,s,impossible,144,144,72,0,288,216,144,72,0,288,216,144,72,0,288,216,144,144,72,0,288,216,144,72,0,288,216,144,72,0,288,216,5f9180a9cd707207f8465a19,60464aa7bb53b90dc2530d36,2021-03-08_17h03.07.948,Impossible2021,2020.1.3,Win32,60,60462d2f8138f40887a79fc4,,,s,1,1.946075,0,38,38,88,1,4,,
,,,,,,,,,,,,,,,,,,,,,,,,,,,,,,,images/24impossible.bmp,images/24impossible.bmp,images/24impossible.bmp,images/24impossible.bmp,images/24impossible.bmp,,,,,,,,,,,,images/24impossible.bmp,,,,,s,impossible,0,0,288,216,144,72,0,288,216,144,72,0,288,216,144,72,0,0,288,216,144,72,0,288,216,144,72,0,288,216,144,72,5f9180a9cd707207f8465a19,60464aa7bb53b90dc2530d36,2021-03-08_17h03.07.948,Impossible2021,2020.1.3,Win32,60,60462d2f8138f40887a79fc4,,,s,1,1.05203,0,39,39,100,1,5,,
,,,,,,,,,,,,,,,,,,,,,,,,images/69possible.bmp,images/69possible.bmp,images/69possible.bmp,,,,,,,,,,,,,,,,images/69possible.bmp,,,,,,,,,,s,possible,216,216,144,72,0,288,216,144,72,0,288,216,144,72,0,288,216,216,144,72,0,288,216,144,72,0,288,216,144,72,0,288,5f9180a9cd707207f8465a19,60464aa7bb53b90dc2530d36,2021-03-08_17h03.07.948,Impossible2021,2020.1.3,Win32,60,60462d2f8138f40887a79fc4,,,s,1,0.797855,0,40,40,65,1,3,,
,,,,,,,,,,,,,,,,,,,,,,,,,,,images/69impossible.bmp,images/69impossible.bmp,images/69impossible.bmp,images/69impossible.bmp,,,,,,,,,,,,,,images/69impossible.bmp,,,,,,,,d,impossible,216,216,144,72,0,288,216,144,72,0,288,216,144,72,0,288,144,144,72,0,288,216,144,72,0,288,216,144,72,0,288,216,5f9180a9cd707207f8465a19,60464aa7bb53b90dc2530d36,2021-03-08_17h03.07.948,Impossible2021,2020.1.3,Win32,60,60462d2f8138f40887a79fc4,,,d,1,1.25304,0,41,41,95,1,4,,
,,,,,,,,,,,,,,,,,,,,images/05impossible.bmp,,,,,,,,,,,,,,,,images/05impossible.bmp,,,,,,,,,,,,,,,,s,impossible,216,216,144,72,0,288,216,144,72,0,288,216,144,72,0,288,216,216,144,72,0,288,216,144,72,0,288,216,144,72,0,288,5f9180a9cd707207f8465a19,60464aa7bb53b90dc2530d36,2021-03-08_17h03.07.948,Impossible2021,2020.1.3,Win32,60,60462d2f8138f40887a79fc4,,,s,1,0.740655,0,42,42,1,1,1,,
,,,,,,,,,,,,,,,,,,,,,,,,,,,,,,,images/65possible.bmp,images/65possible.bmp,images/65possible.bmp,images/65possible.bmp,images/65possible.bmp,,,,,,,,,,,,,,,images/65possible.bmp,,s,possible,144,144,72,0,288,216,144,72,0,288,216,144,72,0,288,216,144,144,72,0,288,216,144,72,0,288,216,144,72,0,288,216,5f9180a9cd707207f8465a19,60464aa7bb53b90dc2530d36,2021-03-08_17h03.07.948,Impossible2021,2020.1.3,Win32,60,60462d2f8138f40887a79fc4,,,s,1,1.30375,0,43,43,112,1,5,,
,,,,,,,,,,,,,,,,,,,,,,,,,,,images/24possible.bmp,images/24possible.bmp,images/24possible.bmp,images/24possible.bmp,,,,,,,,,,,,,,,,images/24possible.bmp,,,,,,d,possible,0,0,288,216,144,72,0,288,216,144,72,0,288,216,144,72,288,288,216,144,72,0,288,216,144,72,0,288,216,144,72,0,5f9180a9cd707207f8465a19,60464aa7bb53b90dc2530d36,2021-03-08_17h03.07.948,Impossible2021,2020.1.3,Win32,60,60462d2f8138f40887a79fc4,,,d,1,0.944825,0,44,44,82,1,4,,
,,,,,,,,,,,,,,,,,,,,,,,,,,,images/03possible.bmp,images/03possible.bmp,images/03possible.bmp,images/03possible.bmp,,,,,,,,,,,,,,images/03possible.bmp,,,,,,,,s,possible,72,72,0,288,216,144,72,0,288,216,144,72,0,288,216,144,72,72,0,288,216,144,72,0,288,216,144,72,0,288,216,144,5f9180a9cd707207f8465a19,60464aa7bb53b90dc2530d36,2021-03-08_17h03.07.948,Impossible2021,2020.1.3,Win32,60,60462d2f8138f40887a79fc4,,,s,1,0.828225,0,45,45,72,1,4,,
,,,,,,,,,,,,,,,,,,,,images/55possible.bmp,,,,,,,,,,,,,,,,images/55possible.bmp,,,,,,,,,,,,,,,,d,possible,72,72,0,288,216,144,72,0,288,216,144,72,0,288,216,144,0,0,288,216,144,72,0,288,216,144,72,0,288,216,144,72,5f9180a9cd707207f8465a19,60464aa7bb53b90dc2530d36,2021-03-08_17h03.07.948,Impossible2021,2020.1.3,Win32,60,60462d2f8138f40887a79fc4,,,d,1,0.684685,0,46,46,21,1,1,,
,,,,,,,,,,,,,,,,,,,,,,,,images/03impossible.bmp,images/03impossible.bmp,images/03impossible.bmp,,,,,,,,,,,,,,,images/03impossible.bmp,,,,,,,,,,,s,impossible,72,72,0,288,216,144,72,0,288,216,144,72,0,288,216,144,72,72,0,288,216,144,72,0,288,216,144,72,0,288,216,144,5f9180a9cd707207f8465a19,60464aa7bb53b90dc2530d36,2021-03-08_17h03.07.948,Impossible2021,2020.1.3,Win32,60,60462d2f8138f40887a79fc4,,,s,1,0.819745,0,47,47,48,1,3,,
,,,,,,,,,,,,,,,,,,,,,,,,,,,images/55impossible.bmp,images/55impossible.bmp,images/55impossible.bmp,images/55impossible.bmp,,,,,,,,,,,,,,images/55impossible.bmp,,,,,,,,s,impossible,72,72,0,288,216,144,72,0,288,216,144,72,0,288,216,144,72,72,0,288,216,144,72,0,288,216,144,72,0,288,216,144,5f9180a9cd707207f8465a19,60464aa7bb53b90dc2530d36,2021-03-08_17h03.07.948,Impossible2021,2020.1.3,Win32,60,60462d2f8138f40887a79fc4,,,s,1,0.88641,0,48,48,87,1,4,,
,,,,,,,,,,,,,,,,,,,,images/38possible.bmp,,,,,,,,,,,,,,,,images/38possible.bmp,,,,,,,,,,,,,,,,s,possible,72,72,0,288,216,144,72,0,288,216,144,72,0,288,216,144,72,72,0,288,216,144,72,0,288,216,144,72,0,288,216,144,5f9180a9cd707207f8465a19,60464aa7bb53b90dc2530d36,2021-03-08_17h03.07.948,Impossible2021,2020.1.3,Win32,60,60462d2f8138f40887a79fc4,,,s,1,0.705095,0,49,49,12,1,1,,
,,,,,,,,,,,,,,,,,,,,,,,,,,,,,,,images/42possible.bmp,images/42possible.bmp,images/42possible.bmp,images/42possible.bmp,images/42possible.bmp,,,,,,,,,,,,,,,images/42possible.bmp,,d,possible,144,144,72,0,288,216,144,72,0,288,216,144,72,0,288,216,72,72,0,288,216,144,72,0,288,216,144,72,0,288,216,144,5f9180a9cd707207f8465a19,60464aa7bb53b90dc2530d36,2021-03-08_17h03.07.948,Impossible2021,2020.1.3,Win32,60,60462d2f8138f40887a79fc4,,,d,1,1.25281,0,50,50,115,1,5,,
,,,,,,,,,,,,,,,,,,,,,,images/38impossible.bmp,images/38impossible.bmp,,,,,,,,,,,,,,,images/38impossible.bmp,,,,,,,,,,,,,,s,impossible,72,72,0,288,216,144,72,0,288,216,144,72,0,288,216,144,72,72,0,288,216,144,72,0,288,216,144,72,0,288,216,144,5f9180a9cd707207f8465a19,60464aa7bb53b90dc2530d36,2021-03-08_17h03.07.948,Impossible2021,2020.1.3,Win32,60,60462d2f8138f40887a79fc4,,,s,1,1.819295,0,51,51,36,1,2,,
,,,,,,,,,,,,,,,,,,,,,,images/05possible.bmp,images/05possible.bmp,,,,,,,,,,,,,,,,images/05possible.bmp,,,,,,,,,,,,,s,possible,216,216,144,72,0,288,216,144,72,0,288,216,144,72,0,288,216,216,144,72,0,288,216,144,72,0,288,216,144,72,0,288,5f9180a9cd707207f8465a19,60464aa7bb53b90dc2530d36,2021-03-08_17h03.07.948,Impossible2021,2020.1.3,Win32,60,60462d2f8138f40887a79fc4,,,s,1,0.806655,0,52,52,25,1,2,,
,,,,,,,,,,,,,,,,,,,,,,,,,,,,,,,images/65possible.bmp,images/65possible.bmp,images/65possible.bmp,images/65possible.bmp,images/65possible.bmp,,,,,,,,,,,,,images/65possible.bmp,,,,d,possible,144,144,72,0,288,216,144,72,0,288,216,144,72,0,288,216,72,72,0,288,216,144,72,0,288,216,144,72,0,288,216,144,5f9180a9cd707207f8465a19,60464aa7bb53b90dc2530d36,2021-03-08_17h03.07.948,Impossible2021,2020.1.3,Win32,60,60462d2f8138f40887a79fc4,,,d,1,1.270145,0,53,53,118,1,5,,
,,,,,,,,,,,,,,,,,,,,,,,,images/38possible.bmp,images/38possible.bmp,images/38possible.bmp,,,,,,,,,,,,,,,images/38possible.bmp,,,,,,,,,,,s,possible,72,72,0,288,216,144,72,0,288,216,144,72,0,288,216,144,72,72,0,288,216,144,72,0,288,216,144,72,0,288,216,144,5f9180a9cd707207f8465a19,60464aa7bb53b90dc2530d36,2021-03-08_17h03.07.948,Impossible2021,2020.1.3,Win32,60,60462d2f8138f40887a79fc4,,,s,1,0.818345,0,54,54,60,1,3,,
,,,,,,,,,,,,,,,,,,,,images/03impossible.bmp,,,,,,,,,,,,,,,,images/03impossible.bmp,,,,,,,,,,,,,,,,s,impossible,72,72,0,288,216,144,72,0,288,216,144,72,0,288,216,144,72,72,0,288,216,144,72,0,288,216,144,72,0,288,216,144,5f9180a9cd707207f8465a19,60464aa7bb53b90dc2530d36,2021-03-08_17h03.07.948,Impossible2021,2020.1.3,Win32,60,60462d2f8138f40887a79fc4,,,s,1,1.30032,0,55,55,0,1,1,,
,,,,,,,,,,,,,,,,,,,,,,,,,,,images/44impossible.bmp,images/44impossible.bmp,images/44impossible.bmp,images/44impossible.bmp,,,,,,,,,,,,,,,images/44impossible.bmp,,,,,,,s,impossible,216,216,144,72,0,288,216,144,72,0,288,216,144,72,0,288,216,216,144,72,0,288,216,144,72,0,288,216,144,72,0,288,5f9180a9cd707207f8465a19,60464aa7bb53b90dc2530d36,2021-03-08_17h03.07.948,Impossible2021,2020.1.3,Win32,60,60462d2f8138f40887a79fc4,,,s,1,1.772845,0,56,56,86,1,4,,
,,,,,,,,,,,,,,,,,,,,,,,,,,,images/08possible.bmp,images/08possible.bmp,images/08possible.bmp,images/08possible.bmp,,,,,,,,,,,,,,,images/08possible.bmp,,,,,,,s,possible,288,288,216,144,72,0,288,216,144,72,0,288,216,144,72,0,288,288,216,144,72,0,288,216,144,72,0,288,216,144,72,0,5f9180a9cd707207f8465a19,60464aa7bb53b90dc2530d36,2021-03-08_17h03.07.948,Impossible2021,2020.1.3,Win32,60,60462d2f8138f40887a79fc4,,,s,1,1.155505,0,57,57,74,1,4,,
,,,,,,,,,,,,,,,,,,,,,,,,images/24impossible.bmp,images/24impossible.bmp,images/24impossible.bmp,,,,,,,,,,,,,,,images/24impossible.bmp,,,,,,,,,,,d,impossible,0,0,288,216,144,72,0,288,216,144,72,0,288,216,144,72,288,288,216,144,72,0,288,216,144,72,0,288,216,144,72,0,5f9180a9cd707207f8465a19,60464aa7bb53b90dc2530d36,2021-03-08_17h03.07.948,Impossible2021,2020.1.3,Win32,60,60462d2f8138f40887a79fc4,,,s,0,2.09888,0,58,58,58,1,3,,
,,,,,,,,,,,,,,,,,,,,,,,,,,,images/22possible.bmp,images/22possible.bmp,images/22possible.bmp,images/22possible.bmp,,,,,,,,,,,,,,,images/22possible.bmp,,,,,,,d,possible,216,216,144,72,0,288,216,144,72,0,288,216,144,72,0,288,144,144,72,0,288,216,144,72,0,288,216,144,72,0,288,216,5f9180a9cd707207f8465a19,60464aa7bb53b90dc2530d36,2021-03-08_17h03.07.948,Impossible2021,2020.1.3,Win32,60,60462d2f8138f40887a79fc4,,,s,0,1.951215,0,59,59,81,1,4,,
,,,,,,,,,,,,,,,,,,,,,,,,images/24impossible.bmp,images/24impossible.bmp,images/24impossible.bmp,,,,,,,,,,,,,,,images/24impossible.bmp,,,,,,,,,,,s,impossible,0,0,288,216,144,72,0,288,216,144,72,0,288,216,144,72,0,0,288,216,144,72,0,288,216,144,72,0,288,216,144,72,5f9180a9cd707207f8465a19,60464aa7bb53b90dc2530d36,2021-03-08_17h03.07.948,Impossible2021,2020.1.3,Win32,60,60462d2f8138f40887a79fc4,,,s,1,0.88751,0,60,60,52,1,3,,
,,,,,,,,,,,,,,,,,,,,,,,,,,,,,,,images/44possible.bmp,images/44possible.bmp,images/44possible.bmp,images/44possible.bmp,images/44possible.bmp,,,,,,,,,,,,,,images/44possible.bmp,,,d,possible,216,216,144,72,0,288,216,144,72,0,288,216,144,72,0,288,144,144,72,0,288,216,144,72,0,288,216,144,72,0,288,216,5f9180a9cd707207f8465a19,60464aa7bb53b90dc2530d36,2021-03-08_17h03.07.948,Impossible2021,2020.1.3,Win32,60,60462d2f8138f40887a79fc4,,,s,0,1.70219,0,61,61,116,1,5,,
,,,,,,,,,,,,,,,,,,,,,,,,,,,,,,,images/44possible.bmp,images/44possible.bmp,images/44possible.bmp,images/44possible.bmp,images/44possible.bmp,,,,,,,,,,,,,,images/44possible.bmp,,,s,possible,216,216,144,72,0,288,216,144,72,0,288,216,144,72,0,288,216,216,144,72,0,288,216,144,72,0,288,216,144,72,0,288,5f9180a9cd707207f8465a19,60464aa7bb53b90dc2530d36,2021-03-08_17h03.07.948,Impossible2021,2020.1.3,Win32,60,60462d2f8138f40887a79fc4,,,s,1,1.208125,0,62,62,110,1,5,,
,,,,,,,,,,,,,,,,,,,,,,,,,,,images/42impossible.bmp,images/42impossible.bmp,images/42impossible.bmp,images/42impossible.bmp,,,,,,,,,,,,,,,,images/42impossible.bmp,,,,,,d,impossible,144,144,72,0,288,216,144,72,0,288,216,144,72,0,288,216,72,72,0,288,216,144,72,0,288,216,144,72,0,288,216,144,5f9180a9cd707207f8465a19,60464aa7bb53b90dc2530d36,2021-03-08_17h03.07.948,Impossible2021,2020.1.3,Win32,60,60462d2f8138f40887a79fc4,,,d,1,2.87232,0,63,63,91,1,4,,
,,,,,,,,,,,,,,,,,,,,,images/65possible.bmp,,,,,,,,,,,,,,,,images/65possible.bmp,,,,,,,,,,,,,,,d,possible,144,144,72,0,288,216,144,72,0,288,216,144,72,0,288,216,72,72,0,288,216,144,72,0,288,216,144,72,0,288,216,144,5f9180a9cd707207f8465a19,60464aa7bb53b90dc2530d36,2021-03-08_17h03.07.948,Impossible2021,2020.1.3,Win32,60,60462d2f8138f40887a79fc4,,,d,1,0.77099,0,64,64,22,1,1,,
,,,,,,,,,,,,,,,,,,,,,,,,images/05impossible.bmp,images/05impossible.bmp,images/05impossible.bmp,,,,,,,,,,,,,,,,images/05impossible.bmp,,,,,,,,,,d,impossible,216,216,144,72,0,288,216,144,72,0,288,216,144,72,0,288,144,144,72,0,288,216,144,72,0,288,216,144,72,0,288,216,5f9180a9cd707207f8465a19,60464aa7bb53b90dc2530d36,2021-03-08_17h03.07.948,Impossible2021,2020.1.3,Win32,60,60462d2f8138f40887a79fc4,,,d,1,1.47541,0,65,65,55,1,3,,
,,,,,,,,,,,,,,,,,,,,,,,,images/65possible.bmp,images/65possible.bmp,images/65possible.bmp,,,,,,,,,,,,,,,images/65possible.bmp,,,,,,,,,,,s,possible,144,144,72,0,288,216,144,72,0,288,216,144,72,0,288,216,144,144,72,0,288,216,144,72,0,288,216,144,72,0,288,216,5f9180a9cd707207f8465a19,60464aa7bb53b90dc2530d36,2021-03-08_17h03.07.948,Impossible2021,2020.1.3,Win32,60,60462d2f8138f40887a79fc4,,,s,1,1.806325,0,66,66,64,1,3,,
,,,,,,,,,,,,,,,,,,,,,,,,images/03impossible.bmp,images/03impossible.bmp,images/03impossible.bmp,,,,,,,,,,,,,,,images/03impossible.bmp,,,,,,,,,,,d,impossible,72,72,0,288,216,144,72,0,288,216,144,72,0,288,216,144,0,0,288,216,144,72,0,288,216,144,72,0,288,216,144,72,5f9180a9cd707207f8465a19,60464aa7bb53b90dc2530d36,2021-03-08_17h03.07.948,Impossible2021,2020.1.3,Win32,60,60462d2f8138f40887a79fc4,,,s,0,1.266195,0,67,67,54,1,3,,
,,,,,,,,,,,,,,,,,,,,,,images/69impossible.bmp,images/69impossible.bmp,,,,,,,,,,,,,,,,images/69impossible.bmp,,,,,,,,,,,,,d,impossible,216,216,144,72,0,288,216,144,72,0,288,216,144,72,0,288,144,144,72,0,288,216,144,72,0,288,216,144,72,0,288,216,5f9180a9cd707207f8465a19,60464aa7bb53b90dc2530d36,2021-03-08_17h03.07.948,Impossible2021,2020.1.3,Win32,60,60462d2f8138f40887a79fc4,,,d,1,1.9626,0,68,68,47,1,2,,
,,,,,,,,,,,,,,,,,,,,,images/55possible.bmp,,,,,,,,,,,,,,,,images/55possible.bmp,,,,,,,,,,,,,,,s,possible,72,72,0,288,216,144,72,0,288,216,144,72,0,288,216,144,72,72,0,288,216,144,72,0,288,216,144,72,0,288,216,144,5f9180a9cd707207f8465a19,60464aa7bb53b90dc2530d36,2021-03-08_17h03.07.948,Impossible2021,2020.1.3,Win32,60,60462d2f8138f40887a79fc4,,,s,1,1.029705,0,69,69,15,1,1,,
,,,,,,,,,,,,,,,,,,,,,,images/22possible.bmp,images/22possible.bmp,,,,,,,,,,,,,,,,images/22possible.bmp,,,,,,,,,,,,,d,possible,216,216,144,72,0,288,216,144,72,0,288,216,144,72,0,288,144,144,72,0,288,216,144,72,0,288,216,144,72,0,288,216,5f9180a9cd707207f8465a19,60464aa7bb53b90dc2530d36,2021-03-08_17h03.07.948,Impossible2021,2020.1.3,Win32,60,60462d2f8138f40887a79fc4,,,d,1,1.559625,0,70,70,33,1,2,,
,,,,,,,,,,,,,,,,,,,,,,,,,,,images/05possible.bmp,images/05possible.bmp,images/05possible.bmp,images/05possible.bmp,,,,,,,,,,,,,,,,images/05possible.bmp,,,,,,s,possible,216,216,144,72,0,288,216,144,72,0,288,216,144,72,0,288,216,216,144,72,0,288,216,144,72,0,288,216,144,72,0,288,5f9180a9cd707207f8465a19,60464aa7bb53b90dc2530d36,2021-03-08_17h03.07.948,Impossible2021,2020.1.3,Win32,60,60462d2f8138f40887a79fc4,,,s,1,1.341915,0,71,71,73,1,4,,
,,,,,,,,,,,,,,,,,,,,,,images/65impossible.bmp,images/65impossible.bmp,,,,,,,,,,,,,,,images/65impossible.bmp,,,,,,,,,,,,,,s,impossible,144,144,72,0,288,216,144,72,0,288,216,144,72,0,288,216,144,144,72,0,288,216,144,72,0,288,216,144,72,0,288,216,5f9180a9cd707207f8465a19,60464aa7bb53b90dc2530d36,2021-03-08_17h03.07.948,Impossible2021,2020.1.3,Win32,60,60462d2f8138f40887a79fc4,,,s,1,0.83175,0,72,72,40,1,2,,
,,,,,,,,,,,,,,,,,,,,,,,,images/65possible.bmp,images/65possible.bmp,images/65possible.bmp,,,,,,,,,,,,,,images/65possible.bmp,,,,,,,,,,,,d,possible,144,144,72,0,288,216,144,72,0,288,216,144,72,0,288,216,72,72,0,288,216,144,72,0,288,216,144,72,0,288,216,144,5f9180a9cd707207f8465a19,60464aa7bb53b90dc2530d36,2021-03-08_17h03.07.948,Impossible2021,2020.1.3,Win32,60,60462d2f8138f40887a79fc4,,,d,1,0.837685,0,73,73,70,1,3,,
,,,,,,,,,,,,,,,,,,,,,,,,,,,,,,,images/55possible.bmp,images/55possible.bmp,images/55possible.bmp,images/55possible.bmp,images/55possible.bmp,,,,,,,,,,,,images/55possible.bmp,,,,,d,possible,72,72,0,288,216,144,72,0,288,216,144,72,0,288,216,144,0,0,288,216,144,72,0,288,216,144,72,0,288,216,144,72,5f9180a9cd707207f8465a19,60464aa7bb53b90dc2530d36,2021-03-08_17h03.07.948,Impossible2021,2020.1.3,Win32,60,60462d2f8138f40887a79fc4,,,s,0,1.038385,0,74,74,117,1,5,,
,,,,,,,,,,,,,,,,,,,,,,,,,,,images/03possible.bmp,images/03possible.bmp,images/03possible.bmp,images/03possible.bmp,,,,,,,,,,,,,,,,images/03possible.bmp,,,,,,d,possible,72,72,0,288,216,144,72,0,288,216,144,72,0,288,216,144,0,0,288,216,144,72,0,288,216,144,72,0,288,216,144,72,5f9180a9cd707207f8465a19,60464aa7bb53b90dc2530d36,2021-03-08_17h03.07.948,Impossible2021,2020.1.3,Win32,60,60462d2f8138f40887a79fc4,,,d,1,1.408675,0,75,75,78,1,4,,
,,,,,,,,,,,,,,,,,,,,,,,,images/25impossible.bmp,images/25impossible.bmp,images/25impossible.bmp,,,,,,,,,,,,,,images/25impossible.bmp,,,,,,,,,,,,s,impossible,72,72,0,288,216,144,72,0,288,216,144,72,0,288,216,144,72,72,0,288,216,144,72,0,288,216,144,72,0,288,216,144,5f9180a9cd707207f8465a19,60464aa7bb53b90dc2530d36,2021-03-08_17h03.07.948,Impossible2021,2020.1.3,Win32,60,60462d2f8138f40887a79fc4,,,s,1,1.463545,0,76,76,53,1,3,,
,,,,,,,,,,,,,,,,,,,,,,,,,,,,,,,images/24impossible.bmp,images/24impossible.bmp,images/24impossible.bmp,images/24impossible.bmp,images/24impossible.bmp,,,,,,,,,,,,,,,,images/24impossible.bmp,d,impossible,0,0,288,216,144,72,0,288,216,144,72,0,288,216,144,72,288,288,216,144,72,0,288,216,144,72,0,288,216,144,72,0,5f9180a9cd707207f8465a19,60464aa7bb53b90dc2530d36,2021-03-08_17h03.07.948,Impossible2021,2020.1.3,Win32,60,60462d2f8138f40887a79fc4,,,s,0,0.723725,0,77,77,106,1,5,,
,,,,,,,,,,,,,,,,,,,,images/65possible.bmp,,,,,,,,,,,,,,,,images/65possible.bmp,,,,,,,,,,,,,,,,s,possible,144,144,72,0,288,216,144,72,0,288,216,144,72,0,288,216,144,144,72,0,288,216,144,72,0,288,216,144,72,0,288,216,5f9180a9cd707207f8465a19,60464aa7bb53b90dc2530d36,2021-03-08_17h03.07.948,Impossible2021,2020.1.3,Win32,60,60462d2f8138f40887a79fc4,,,s,1,0.50317,0,78,78,16,1,1,,
,,,,,,,,,,,,,,,,,,,,images/25impossible.bmp,,,,,,,,,,,,,,,,images/25impossible.bmp,,,,,,,,,,,,,,,,s,impossible,72,72,0,288,216,144,72,0,288,216,144,72,0,288,216,144,72,72,0,288,216,144,72,0,288,216,144,72,0,288,216,144,5f9180a9cd707207f8465a19,60464aa7bb53b90dc2530d36,2021-03-08_17h03.07.948,Impossible2021,2020.1.3,Win32,60,60462d2f8138f40887a79fc4,,,s,1,0.92298,0,79,79,5,1,1,,
,,,,,,,,,,,,,,,,,,,,,,images/03possible.bmp,images/03possible.bmp,,,,,,,,,,,,,,,images/03possible.bmp,,,,,,,,,,,,,,d,possible,72,72,0,288,216,144,72,0,288,216,144,72,0,288,216,144,0,0,288,216,144,72,0,288,216,144,72,0,288,216,144,72,5f9180a9cd707207f8465a19,60464aa7bb53b90dc2530d36,2021-03-08_17h03.07.948,Impossible2021,2020.1.3,Win32,60,60462d2f8138f40887a79fc4,,,d,1,1.34861,0,80,80,30,1,2,,
,,,,,,,,,,,,,,,,,,,,,,,,,,,,,,,images/38possible.bmp,images/38possible.bmp,images/38possible.bmp,images/38possible.bmp,images/38possible.bmp,,,,,,,,,,,,,,,,images/38possible.bmp,d,possible,72,72,0,288,216,144,72,0,288,216,144,72,0,288,216,144,0,0,288,216,144,72,0,288,216,144,72,0,288,216,144,72,5f9180a9cd707207f8465a19,60464aa7bb53b90dc2530d36,2021-03-08_17h03.07.948,Impossible2021,2020.1.3,Win32,60,60462d2f8138f40887a79fc4,,,s,0,1.134605,0,81,81,114,1,5,,
,,,,,,,,,,,,,,,,,,,,,,,,,,,images/08possible.bmp,images/08possible.bmp,images/08possible.bmp,images/08possible.bmp,,,,,,,,,,,,,images/08possible.bmp,,,,,,,,,d,possible,288,288,216,144,72,0,288,216,144,72,0,288,216,144,72,0,216,216,144,72,0,288,216,144,72,0,288,216,144,72,0,288,5f9180a9cd707207f8465a19,60464aa7bb53b90dc2530d36,2021-03-08_17h03.07.948,Impossible2021,2020.1.3,Win32,60,60462d2f8138f40887a79fc4,,,d,1,1.902275,0,82,82,80,1,4,,
,,,,,,,,,,,,,,,,,,,,,,,,,,,images/25possible.bmp,images/25possible.bmp,images/25possible.bmp,images/25possible.bmp,,,,,,,,,,,,,,,images/25possible.bmp,,,,,,,s,possible,72,72,0,288,216,144,72,0,288,216,144,72,0,288,216,144,72,72,0,288,216,144,72,0,288,216,144,72,0,288,216,144,5f9180a9cd707207f8465a19,60464aa7bb53b90dc2530d36,2021-03-08_17h03.07.948,Impossible2021,2020.1.3,Win32,60,60462d2f8138f40887a79fc4,,,s,1,1.260705,0,83,83,77,1,4,,
,,,,,,,,,,,,,,,,,,,,,,images/42impossible.bmp,images/42impossible.bmp,,,,,,,,,,,,,,,,images/42impossible.bmp,,,,,,,,,,,,,d,impossible,144,144,72,0,288,216,144,72,0,288,216,144,72,0,288,216,72,72,0,288,216,144,72,0,288,216,144,72,0,288,216,144,5f9180a9cd707207f8465a19,60464aa7bb53b90dc2530d36,2021-03-08_17h03.07.948,Impossible2021,2020.1.3,Win32,60,60462d2f8138f40887a79fc4,,,d,1,1.11805,0,84,84,43,1,2,,
,,,,,,,,,,,,,,,,,,,,,,,,images/08impossible.bmp,images/08impossible.bmp,images/08impossible.bmp,,,,,,,,,,,,,,,images/08impossible.bmp,,,,,,,,,,,s,impossible,288,288,216,144,72,0,288,216,144,72,0,288,216,144,72,0,288,288,216,144,72,0,288,216,144,72,0,288,216,144,72,0,5f9180a9cd707207f8465a19,60464aa7bb53b90dc2530d36,2021-03-08_17h03.07.948,Impossible2021,2020.1.3,Win32,60,60462d2f8138f40887a79fc4,,,s,1,1.04466,0,85,85,50,1,3,,
,,,,,,,,,,,,,,,,,,,,,,,,images/69possible.bmp,images/69possible.bmp,images/69possible.bmp,,,,,,,,,,,,,,images/69possible.bmp,,,,,,,,,,,,d,possible,216,216,144,72,0,288,216,144,72,0,288,216,144,72,0,288,144,144,72,0,288,216,144,72,0,288,216,144,72,0,288,216,5f9180a9cd707207f8465a19,60464aa7bb53b90dc2530d36,2021-03-08_17h03.07.948,Impossible2021,2020.1.3,Win32,60,60462d2f8138f40887a79fc4,,,s,0,2.34881,0,86,86,71,1,3,,
,,,,,,,,,,,,,,,,,,,,,,,,,,,,,,,images/69possible.bmp,images/69possible.bmp,images/69possible.bmp,images/69possible.bmp,images/69possible.bmp,,,,,,,,,,,,,,images/69possible.bmp,,,s,possible,216,216,144,72,0,288,216,144,72,0,288,216,144,72,0,288,216,216,144,72,0,288,216,144,72,0,288,216,144,72,0,288,5f9180a9cd707207f8465a19,60464aa7bb53b90dc2530d36,2021-03-08_17h03.07.948,Impossible2021,2020.1.3,Win32,60,60462d2f8138f40887a79fc4,,,d,0,0.99568,0,87,87,113,1,5,,
,,,,,,,,,,,,,,,,,,,,,,,,,,,,,,,images/03impossible.bmp,images/03impossible.bmp,images/03impossible.bmp,images/03impossible.bmp,images/03impossible.bmp,,,,,,,,,,,,,,,,images/03impossible.bmp,d,impossible,72,72,0,288,216,144,72,0,288,216,144,72,0,288,216,144,0,0,288,216,144,72,0,288,216,144,72,0,288,216,144,72,5f9180a9cd707207f8465a19,60464aa7bb53b90dc2530d36,2021-03-08_17h03.07.948,Impossible2021,2020.1.3,Win32,60,60462d2f8138f40887a79fc4,,,d,1,1.365615,0,88,88,102,1,5,,
,,,,,,,,,,,,,,,,,,,,,,images/08possible.bmp,images/08possible.bmp,,,,,,,,,,,,,,,images/08possible.bmp,,,,,,,,,,,,,,d,possible,288,288,216,144,72,0,288,216,144,72,0,288,216,144,72,0,216,216,144,72,0,288,216,144,72,0,288,216,144,72,0,288,5f9180a9cd707207f8465a19,60464aa7bb53b90dc2530d36,2021-03-08_17h03.07.948,Impossible2021,2020.1.3,Win32,60,60462d2f8138f40887a79fc4,,,s,0,0.729175,0,89,89,32,1,2,,
,,,,,,,,,,,,,,,,,,,,images/22impossible.bmp,,,,,,,,,,,,,,,,images/22impossible.bmp,,,,,,,,,,,,,,,,d,impossible,216,216,144,72,0,288,216,144,72,0,288,216,144,72,0,288,144,144,72,0,288,216,144,72,0,288,216,144,72,0,288,216,5f9180a9cd707207f8465a19,60464aa7bb53b90dc2530d36,2021-03-08_17h03.07.948,Impossible2021,2020.1.3,Win32,60,60462d2f8138f40887a79fc4,,,d,1,0.9102,0,90,90,9,1,1,,
,,,,,,,,,,,,,,,,,,,,,,,,images/42possible.bmp,images/42possible.bmp,images/42possible.bmp,,,,,,,,,,,,,,,,images/42possible.bmp,,,,,,,,,,s,possible,144,144,72,0,288,216,144,72,0,288,216,144,72,0,288,216,144,144,72,0,288,216,144,72,0,288,216,144,72,0,288,216,5f9180a9cd707207f8465a19,60464aa7bb53b90dc2530d36,2021-03-08_17h03.07.948,Impossible2021,2020.1.3,Win32,60,60462d2f8138f40887a79fc4,,,s,1,0.91193,0,91,91,61,1,3,,
,,,,,,,,,,,,,,,,,,,,,,,,,,,images/44impossible.bmp,images/44impossible.bmp,images/44impossible.bmp,images/44impossible.bmp,,,,,,,,,,,,,images/44impossible.bmp,,,,,,,,,d,impossible,216,216,144,72,0,288,216,144,72,0,288,216,144,72,0,288,144,144,72,0,288,216,144,72,0,288,216,144,72,0,288,216,5f9180a9cd707207f8465a19,60464aa7bb53b90dc2530d36,2021-03-08_17h03.07.948,Impossible2021,2020.1.3,Win32,60,60462d2f8138f40887a79fc4,,,s,0,1.61317,0,92,92,92,1,4,,
,,,,,,,,,,,,,,,,,,,,,,,,images/08impossible.bmp,images/08impossible.bmp,images/08impossible.bmp,,,,,,,,,,,,,,,images/08impossible.bmp,,,,,,,,,,,d,impossible,288,288,216,144,72,0,288,216,144,72,0,288,216,144,72,0,216,216,144,72,0,288,216,144,72,0,288,216,144,72,0,288,5f9180a9cd707207f8465a19,60464aa7bb53b90dc2530d36,2021-03-08_17h03.07.948,Impossible2021,2020.1.3,Win32,60,60462d2f8138f40887a79fc4,,,s,0,1.267015,0,93,93,56,1,3,,
,,,,,,,,,,,,,,,,,,,,images/24impossible.bmp,,,,,,,,,,,,,,,,images/24impossible.bmp,,,,,,,,,,,,,,,,d,impossible,0,0,288,216,144,72,0,288,216,144,72,0,288,216,144,72,288,288,216,144,72,0,288,216,144,72,0,288,216,144,72,0,5f9180a9cd707207f8465a19,60464aa7bb53b90dc2530d36,2021-03-08_17h03.07.948,Impossible2021,2020.1.3,Win32,60,60462d2f8138f40887a79fc4,,,d,1,0.644725,0,94,94,10,1,1,,
,,,,,,,,,,,,,,,,,,,,,,images/42impossible.bmp,images/42impossible.bmp,,,,,,,,,,,,,,,,images/42impossible.bmp,,,,,,,,,,,,,s,impossible,144,144,72,0,288,216,144,72,0,288,216,144,72,0,288,216,144,144,72,0,288,216,144,72,0,288,216,144,72,0,288,216,5f9180a9cd707207f8465a19,60464aa7bb53b90dc2530d36,2021-03-08_17h03.07.948,Impossible2021,2020.1.3,Win32,60,60462d2f8138f40887a79fc4,,,s,1,1.273655,0,95,95,37,1,2,,
,,,,,,,,,,,,,,,,,,,,images/08impossible.bmp,,,,,,,,,,,,,,,,images/08impossible.bmp,,,,,,,,,,,,,,,,d,impossible,288,288,216,144,72,0,288,216,144,72,0,288,216,144,72,0,216,216,144,72,0,288,216,144,72,0,288,216,144,72,0,288,5f9180a9cd707207f8465a19,60464aa7bb53b90dc2530d36,2021-03-08_17h03.07.948,Impossible2021,2020.1.3,Win32,60,60462d2f8138f40887a79fc4,,,d,1,0.817095,0,96,96,8,1,1,,
,,,,,,,,,,,,,,,,,,,,,,,,,,,images/42impossible.bmp,images/42impossible.bmp,images/42impossible.bmp,images/42impossible.bmp,,,,,,,,,,,,,,,,images/42impossible.bmp,,,,,,s,impossible,144,144,72,0,288,216,144,72,0,288,216,144,72,0,288,216,144,144,72,0,288,216,144,72,0,288,216,144,72,0,288,216,5f9180a9cd707207f8465a19,60464aa7bb53b90dc2530d36,2021-03-08_17h03.07.948,Impossible2021,2020.1.3,Win32,60,60462d2f8138f40887a79fc4,,,s,1,0.921515,0,97,97,85,1,4,,
,,,,,,,,,,,,,,,,,,,,,images/08impossible.bmp,,,,,,,,,,,,,,,,images/08impossible.bmp,,,,,,,,,,,,,,,s,impossible,288,288,216,144,72,0,288,216,144,72,0,288,216,144,72,0,288,288,216,144,72,0,288,216,144,72,0,288,216,144,72,0,5f9180a9cd707207f8465a19,60464aa7bb53b90dc2530d36,2021-03-08_17h03.07.948,Impossible2021,2020.1.3,Win32,60,60462d2f8138f40887a79fc4,,,s,1,1.277185,0,98,98,2,1,1,,
,,,,,,,,,,,,,,,,,,,,,,,,images/22impossible.bmp,images/22impossible.bmp,images/22impossible.bmp,,,,,,,,,,,,,,,,images/22impossible.bmp,,,,,,,,,,d,impossible,216,216,144,72,0,288,216,144,72,0,288,216,144,72,0,288,144,144,72,0,288,216,144,72,0,288,216,144,72,0,288,216,5f9180a9cd707207f8465a19,60464aa7bb53b90dc2530d36,2021-03-08_17h03.07.948,Impossible2021,2020.1.3,Win32,60,60462d2f8138f40887a79fc4,,,d,1,1.636905,0,99,99,57,1,3,,
,,,,,,,,,,,,,,,,,,,,,,,,,,,,,,,images/22impossible.bmp,images/22impossible.bmp,images/22impossible.bmp,images/22impossible.bmp,images/22impossible.bmp,,,,,,,,,,,,,images/22impossible.bmp,,,,s,impossible,216,216,144,72,0,288,216,144,72,0,288,216,144,72,0,288,216,216,144,72,0,288,216,144,72,0,288,216,144,72,0,288,5f9180a9cd707207f8465a19,60464aa7bb53b90dc2530d36,2021-03-08_17h03.07.948,Impossible2021,2020.1.3,Win32,60,60462d2f8138f40887a79fc4,,,s,1,0.77081,0,100,100,99,1,5,,
,,,,,,,,,,,,,,,,,,,,,,images/44impossible.bmp,images/44impossible.bmp,,,,,,,,,,,,,,,images/44impossible.bmp,,,,,,,,,,,,,,s,impossible,216,216,144,72,0,288,216,144,72,0,288,216,144,72,0,288,216,216,144,72,0,288,216,144,72,0,288,216,144,72,0,288,5f9180a9cd707207f8465a19,60464aa7bb53b90dc2530d36,2021-03-08_17h03.07.948,Impossible2021,2020.1.3,Win32,60,60462d2f8138f40887a79fc4,,,s,1,1.300825,0,101,101,38,1,2,,
,,,,,,,,,,,,,,,,,,,,,,,,,,,,,,,images/08impossible.bmp,images/08impossible.bmp,images/08impossible.bmp,images/08impossible.bmp,images/08impossible.bmp,,,,,,,,,,,,,images/08impossible.bmp,,,,d,impossible,288,288,216,144,72,0,288,216,144,72,0,288,216,144,72,0,216,216,144,72,0,288,216,144,72,0,288,216,144,72,0,288,5f9180a9cd707207f8465a19,60464aa7bb53b90dc2530d36,2021-03-08_17h03.07.948,Impossible2021,2020.1.3,Win32,60,60462d2f8138f40887a79fc4,,,s,0,1.32112,0,102,102,104,1,5,,
,,,,,,,,,,,,,,,,,,,,,images/22impossible.bmp,,,,,,,,,,,,,,,,images/22impossible.bmp,,,,,,,,,,,,,,,s,impossible,216,216,144,72,0,288,216,144,72,0,288,216,144,72,0,288,216,216,144,72,0,288,216,144,72,0,288,216,144,72,0,288,5f9180a9cd707207f8465a19,60464aa7bb53b90dc2530d36,2021-03-08_17h03.07.948,Impossible2021,2020.1.3,Win32,60,60462d2f8138f40887a79fc4,,,s,1,0.94048,0,103,103,3,1,1,,
,,,,,,,,,,,,,,,,,,,,,,,,,,,,,,,images/42possible.bmp,images/42possible.bmp,images/42possible.bmp,images/42possible.bmp,images/42possible.bmp,,,,,,,,,,,,,images/42possible.bmp,,,,s,possible,144,144,72,0,288,216,144,72,0,288,216,144,72,0,288,216,144,144,72,0,288,216,144,72,0,288,216,144,72,0,288,216,5f9180a9cd707207f8465a19,60464aa7bb53b90dc2530d36,2021-03-08_17h03.07.948,Impossible2021,2020.1.3,Win32,60,60462d2f8138f40887a79fc4,,,s,1,1.327715,0,104,104,109,1,5,,
,,,,,,,,,,,,,,,,,,,,,,,,,,,images/38impossible.bmp,images/38impossible.bmp,images/38impossible.bmp,images/38impossible.bmp,,,,,,,,,,,,,images/38impossible.bmp,,,,,,,,,s,impossible,72,72,0,288,216,144,72,0,288,216,144,72,0,288,216,144,72,72,0,288,216,144,72,0,288,216,144,72,0,288,216,144,5f9180a9cd707207f8465a19,60464aa7bb53b90dc2530d36,2021-03-08_17h03.07.948,Impossible2021,2020.1.3,Win32,60,60462d2f8138f40887a79fc4,,,s,1,0.910775,0,105,105,84,1,4,,
,,,,,,,,,,,,,,,,,,,,,,,,,,,images/55impossible.bmp,images/55impossible.bmp,images/55impossible.bmp,images/55impossible.bmp,,,,,,,,,,,,,,,,images/55impossible.bmp,,,,,,d,impossible,72,72,0,288,216,144,72,0,288,216,144,72,0,288,216,144,0,0,288,216,144,72,0,288,216,144,72,0,288,216,144,72,5f9180a9cd707207f8465a19,60464aa7bb53b90dc2530d36,2021-03-08_17h03.07.948,Impossible2021,2020.1.3,Win32,60,60462d2f8138f40887a79fc4,,,d,1,1.407995,0,106,106,93,1,4,,
,,,,,,,,,,,,,,,,,,,,,,,,,,,,,,,images/05impossible.bmp,images/05impossible.bmp,images/05impossible.bmp,images/05impossible.bmp,images/05impossible.bmp,,,,,,,,,,,,,,,images/05impossible.bmp,,s,impossible,216,216,144,72,0,288,216,144,72,0,288,216,144,72,0,288,216,216,144,72,0,288,216,144,72,0,288,216,144,72,0,288,5f9180a9cd707207f8465a19,60464aa7bb53b90dc2530d36,2021-03-08_17h03.07.948,Impossible2021,2020.1.3,Win32,60,60462d2f8138f40887a79fc4,,,s,1,1.719505,0,107,107,97,1,5,,
,,,,,,,,,,,,,,,,,,,,,,images/55impossible.bmp,images/55impossible.bmp,,,,,,,,,,,,,,,,images/55impossible.bmp,,,,,,,,,,,,,d,impossible,72,72,0,288,216,144,72,0,288,216,144,72,0,288,216,144,0,0,288,216,144,72,0,288,216,144,72,0,288,216,144,72,5f9180a9cd707207f8465a19,60464aa7bb53b90dc2530d36,2021-03-08_17h03.07.948,Impossible2021,2020.1.3,Win32,60,60462d2f8138f40887a79fc4,,,d,1,1.17362,0,108,108,45,1,2,,
,,,,,,,,,,,,,,,,,,,,,,images/25possible.bmp,images/25possible.bmp,,,,,,,,,,,,,,,,images/25possible.bmp,,,,,,,,,,,,,d,possible,72,72,0,288,216,144,72,0,288,216,144,72,0,288,216,144,0,0,288,216,144,72,0,288,216,144,72,0,288,216,144,72,5f9180a9cd707207f8465a19,60464aa7bb53b90dc2530d36,2021-03-08_17h03.07.948,Impossible2021,2020.1.3,Win32,60,60462d2f8138f40887a79fc4,,,d,1,1.57034,0,109,109,35,1,2,,
,,,,,,,,,,,,,,,,,,,,,,,,,,,,,,,images/25impossible.bmp,images/25impossible.bmp,images/25impossible.bmp,images/25impossible.bmp,images/25impossible.bmp,,,,,,,,,,,,,,,,images/25impossible.bmp,d,impossible,72,72,0,288,216,144,72,0,288,216,144,72,0,288,216,144,0,0,288,216,144,72,0,288,216,144,72,0,288,216,144,72,5f9180a9cd707207f8465a19,60464aa7bb53b90dc2530d36,2021-03-08_17h03.07.948,Impossible2021,2020.1.3,Win32,60,60462d2f8138f40887a79fc4,,,d,1,1.258395,0,110,110,107,1,5,,
,,,,,,,,,,,,,,,,,,,,images/42possible.bmp,,,,,,,,,,,,,,,,images/42possible.bmp,,,,,,,,,,,,,,,,d,possible,144,144,72,0,288,216,144,72,0,288,216,144,72,0,288,216,72,72,0,288,216,144,72,0,288,216,144,72,0,288,216,144,5f9180a9cd707207f8465a19,60464aa7bb53b90dc2530d36,2021-03-08_17h03.07.948,Impossible2021,2020.1.3,Win32,60,60462d2f8138f40887a79fc4,,,d,1,0.83657,0,111,111,19,1,1,,
,,,,,,,,,,,,,,,,,,,,,images/24impossible.bmp,,,,,,,,,,,,,,,,images/24impossible.bmp,,,,,,,,,,,,,,,s,impossible,0,0,288,216,144,72,0,288,216,144,72,0,288,216,144,72,0,0,288,216,144,72,0,288,216,144,72,0,288,216,144,72,5f9180a9cd707207f8465a19,60464aa7bb53b90dc2530d36,2021-03-08_17h03.07.948,Impossible2021,2020.1.3,Win32,60,60462d2f8138f40887a79fc4,,,s,1,0.69144,0,112,112,4,1,1,,
,,,,,,,,,,,,,,,,,,,,,,,,images/44possible.bmp,images/44possible.bmp,images/44possible.bmp,,,,,,,,,,,,,,,,images/44possible.bmp,,,,,,,,,,s,possible,216,216,144,72,0,288,216,144,72,0,288,216,144,72,0,288,216,216,144,72,0,288,216,144,72,0,288,216,144,72,0,288,5f9180a9cd707207f8465a19,60464aa7bb53b90dc2530d36,2021-03-08_17h03.07.948,Impossible2021,2020.1.3,Win32,60,60462d2f8138f40887a79fc4,,,s,1,0.80304,0,113,113,62,1,3,,
,,,,,,,,,,,,,,,,,,,,,,images/24possible.bmp,images/24possible.bmp,,,,,,,,,,,,,,,images/24possible.bmp,,,,,,,,,,,,,,d,possible,0,0,288,216,144,72,0,288,216,144,72,0,288,216,144,72,288,288,216,144,72,0,288,216,144,72,0,288,216,144,72,0,5f9180a9cd707207f8465a19,60464aa7bb53b90dc2530d36,2021-03-08_17h03.07.948,Impossible2021,2020.1.3,Win32,60,60462d2f8138f40887a79fc4,,,s,0,1.37143,0,114,114,34,1,2,,
,,,,,,,,,,,,,,,,,,,,,,,,,,,images/25possible.bmp,images/25possible.bmp,images/25possible.bmp,images/25possible.bmp,,,,,,,,,,,,,,images/25possible.bmp,,,,,,,,d,possible,72,72,0,288,216,144,72,0,288,216,144,72,0,288,216,144,0,0,288,216,144,72,0,288,216,144,72,0,288,216,144,72,5f9180a9cd707207f8465a19,60464aa7bb53b90dc2530d36,2021-03-08_17h03.07.948,Impossible2021,2020.1.3,Win32,60,60462d2f8138f40887a79fc4,,,s,0,0.952475,0,115,115,83,1,4,,
,,,,,,,,,,,,,,,,,,,,,images/44possible.bmp,,,,,,,,,,,,,,,,images/44possible.bmp,,,,,,,,,,,,,,,d,possible,216,216,144,72,0,288,216,144,72,0,288,216,144,72,0,288,144,144,72,0,288,216,144,72,0,288,216,144,72,0,288,216,5f9180a9cd707207f8465a19,60464aa7bb53b90dc2530d36,2021-03-08_17h03.07.948,Impossible2021,2020.1.3,Win32,60,60462d2f8138f40887a79fc4,,,d,1,0.932605,0,116,116,20,1,1,,
,,,,,,,,,,,,,,,,,,,,,,,,,,,,,,,images/03impossible.bmp,images/03impossible.bmp,images/03impossible.bmp,images/03impossible.bmp,images/03impossible.bmp,,,,,,,,,,,,,images/03impossible.bmp,,,,s,impossible,72,72,0,288,216,144,72,0,288,216,144,72,0,288,216,144,72,72,0,288,216,144,72,0,288,216,144,72,0,288,216,144,5f9180a9cd707207f8465a19,60464aa7bb53b90dc2530d36,2021-03-08_17h03.07.948,Impossible2021,2020.1.3,Win32,60,60462d2f8138f40887a79fc4,,,s,1,0.878665,0,117,117,96,1,5,,
,,,,,,,,,,,,,,,,,,,,,,images/03possible.bmp,images/03possible.bmp,,,,,,,,,,,,,,,images/03possible.bmp,,,,,,,,,,,,,,s,possible,72,72,0,288,216,144,72,0,288,216,144,72,0,288,216,144,72,72,0,288,216,144,72,0,288,216,144,72,0,288,216,144,5f9180a9cd707207f8465a19,60464aa7bb53b90dc2530d36,2021-03-08_17h03.07.948,Impossible2021,2020.1.3,Win32,60,60462d2f8138f40887a79fc4,,,s,1,0.90541,0,118,118,24,1,2,,
,,,,,,,,,,,,,,,,,,,,,images/03impossible.bmp,,,,,,,,,,,,,,,,images/03impossible.bmp,,,,,,,,,,,,,,,d,impossible,72,72,0,288,216,144,72,0,288,216,144,72,0,288,216,144,0,0,288,216,144,72,0,288,216,144,72,0,288,216,144,72,5f9180a9cd707207f8465a19,60464aa7bb53b90dc2530d36,2021-03-08_17h03.07.948,Impossible2021,2020.1.3,Win32,60,60462d2f8138f40887a79fc4,,,d,1,0.69782,0,119,119,6,1,1,,
,,,,,,,,,,,,,,,,,,,,,,,,,,,,,,,,,,,,,,,,,,,,,,,,,,,,,,,,,,,,,,,,,,,,,,,,,,,,,,,,,,,,,,5f9180a9cd707207f8465a19,60464aa7bb53b90dc2530d36,2021-03-08_17h03.07.948,Impossible2021,2020.1.3,Win32,60,60462d2f8138f40887a79fc4,,,,,,,,,,,,k,3.61125
