consent_key.keys,consent_key.rt,intro_key_2.keys,intro_key_2.rt,key_resp_4.keys,key_resp_4.rt,key_resp_5.keys,key_resp_5.rt,key_resp_6.keys,key_resp_6.rt,key_resp_7.keys,key_resp_7.rt,keyTraining.keys,keyTraining.corr,practiceloop.thisRepN,practiceloop.thisTrialN,practiceloop.thisN,practiceloop.thisIndex,practiceloop.ran,s11,s1_1,s12,s22,s13,s23,s33,s14,s24,s34,s44,s15,s25,s35,s45,s55,t11,t1_1,t12,t22,t13,t23,t33,t14,t24,t34,t44,t15,t25,t35,t45,t55,corrans,study,o11,o1_1,o12,o22,o13,o23,o33,o14,o24,o34,o44,o15,o25,o35,o45,o55,ot11,ot1_1,ot12,ot22,ot13,ot23,ot33,ot14,ot24,ot34,ot44,ot15,ot25,ot35,ot45,ot55,participant,session,date,expName,psychopyVersion,OS,frameRate,STUDY_ID,keyTraining.rt,key_resp_2.keys,key_resp_2.rt,key_resp.keys,key_resp.corr,key_resp.rt,testloop.thisRepN,testloop.thisTrialN,testloop.thisN,testloop.thisIndex,testloop.ran,setsize,key_resp_3.keys,key_resp_3.rt
y,74.966665,space,68.532,space,12.187885,s,19.53899,d,9.51331,space,8.645645,,0,0,0,0,0,1,images/06impossible.bmp,,,,,,,,,,,,,,,,images/06impossible.bmp,,,,,,,,,,,,,,,,s,,0,0,288,216,144,72,0,288,216,144,72,0,288,216,144,72,0,0,288,216,144,72,0,288,216,144,72,0,288,216,144,72,603914a2ed55293204edf74e,60464aa8f328310e36e2de68,2021-03-08_16h04.04.417,Impossible2021,2020.1.3,Win32,60,60462d2f8138f40887a79fc4,,,,,,,,,,,,,,
,,,,,,,,,,,,,0,0,1,1,1,1,,images/06impossible.bmp,,,,,,,,,,,,,,,,images/06impossible.bmp,,,,,,,,,,,,,,,d,,216,216,144,72,0,288,216,144,72,0,288,216,144,72,0,288,144,144,72,0,288,216,144,72,0,288,216,144,72,0,288,216,603914a2ed55293204edf74e,60464aa8f328310e36e2de68,2021-03-08_16h04.04.417,Impossible2021,2020.1.3,Win32,60,60462d2f8138f40887a79fc4,,,,,,,,,,,,,,
,,,,,,,,,,,,s,1,0,2,2,2,1,,,images/06impossible.bmp,images/06impossible.bmp,,,,,,,,,,,,,,,,images/06impossible.bmp,,,,,,,,,,,,,s,,288,288,216,144,72,0,288,216,144,72,0,288,216,144,72,0,288,288,216,144,72,0,288,216,144,72,0,288,216,144,72,0,603914a2ed55293204edf74e,60464aa8f328310e36e2de68,2021-03-08_16h04.04.417,Impossible2021,2020.1.3,Win32,60,60462d2f8138f40887a79fc4,3.32112,,,,,,,,,,,,,
,,,,,,,,,,,,s,0,0,3,3,3,1,,,images/06impossible.bmp,images/06impossible.bmp,,,,,,,,,,,,,,,images/06impossible.bmp,,,,,,,,,,,,,,d,,144,144,72,0,288,216,144,72,0,288,216,144,72,0,288,216,72,72,0,288,216,144,72,0,288,216,144,72,0,288,216,144,603914a2ed55293204edf74e,60464aa8f328310e36e2de68,2021-03-08_16h04.04.417,Impossible2021,2020.1.3,Win32,60,60462d2f8138f40887a79fc4,2.084465,,,,,,,,,,,,,
,,,,,,,,,,,,s,1,0,4,4,4,1,,,,,images/06impossible.bmp,images/06impossible.bmp,images/06impossible.bmp,,,,,,,,,,,,,,images/06impossible.bmp,,,,,,,,,,,,s,,216,216,144,72,0,288,216,144,72,0,288,216,144,72,0,288,216,216,144,72,0,288,216,144,72,0,288,216,144,72,0,288,603914a2ed55293204edf74e,60464aa8f328310e36e2de68,2021-03-08_16h04.04.417,Impossible2021,2020.1.3,Win32,60,60462d2f8138f40887a79fc4,1.367125,,,,,,,,,,,,,
,,,,,,,,,,,,d,1,0,5,5,5,1,,,,,images/06impossible.bmp,images/06impossible.bmp,images/06impossible.bmp,,,,,,,,,,,,,,,,images/06impossible.bmp,,,,,,,,,,d,,216,216,144,72,0,288,216,144,72,0,288,216,144,72,0,288,144,144,72,0,288,216,144,72,0,288,216,144,72,0,288,216,603914a2ed55293204edf74e,60464aa8f328310e36e2de68,2021-03-08_16h04.04.417,Impossible2021,2020.1.3,Win32,60,60462d2f8138f40887a79fc4,2.04992,,,,,,,,,,,,,
,,,,,,,,,,,,,,,,,,,,,,,images/42possible.bmp,images/42possible.bmp,images/42possible.bmp,,,,,,,,,,,,,,,,images/42possible.bmp,,,,,,,,,,s,possible,144,144,72,0,288,216,144,72,0,288,216,144,72,0,288,216,144,144,72,0,288,216,144,72,0,288,216,144,72,0,288,216,603914a2ed55293204edf74e,60464aa8f328310e36e2de68,2021-03-08_16h04.04.417,Impossible2021,2020.1.3,Win32,60,60462d2f8138f40887a79fc4,,space,4.383545,s,1,1.27991,0,0,0,61,1,3,,
,,,,,,,,,,,,,,,,,,,,,,,,,,images/55impossible.bmp,images/55impossible.bmp,images/55impossible.bmp,images/55impossible.bmp,,,,,,,,,,,,,,images/55impossible.bmp,,,,,,,,s,impossible,72,72,0,288,216,144,72,0,288,216,144,72,0,288,216,144,72,72,0,288,216,144,72,0,288,216,144,72,0,288,216,144,603914a2ed55293204edf74e,60464aa8f328310e36e2de68,2021-03-08_16h04.04.417,Impossible2021,2020.1.3,Win32,60,60462d2f8138f40887a79fc4,,,,d,0,1.44717,0,1,1,87,1,4,,
,,,,,,,,,,,,,,,,,,,,images/65possible.bmp,,,,,,,,,,,,,,,,images/65possible.bmp,,,,,,,,,,,,,,,d,possible,144,144,72,0,288,216,144,72,0,288,216,144,72,0,288,216,72,72,0,288,216,144,72,0,288,216,144,72,0,288,216,144,603914a2ed55293204edf74e,60464aa8f328310e36e2de68,2021-03-08_16h04.04.417,Impossible2021,2020.1.3,Win32,60,60462d2f8138f40887a79fc4,,,,d,1,1.49416,0,2,2,22,1,1,,
,,,,,,,,,,,,,,,,,,,,,,,images/44possible.bmp,images/44possible.bmp,images/44possible.bmp,,,,,,,,,,,,,,,,images/44possible.bmp,,,,,,,,,,s,possible,216,216,144,72,0,288,216,144,72,0,288,216,144,72,0,288,216,216,144,72,0,288,216,144,72,0,288,216,144,72,0,288,603914a2ed55293204edf74e,60464aa8f328310e36e2de68,2021-03-08_16h04.04.417,Impossible2021,2020.1.3,Win32,60,60462d2f8138f40887a79fc4,,,,s,1,2.146,0,3,3,62,1,3,,
,,,,,,,,,,,,,,,,,,,,,images/24possible.bmp,images/24possible.bmp,,,,,,,,,,,,,,,images/24possible.bmp,,,,,,,,,,,,,,d,possible,0,0,288,216,144,72,0,288,216,144,72,0,288,216,144,72,288,288,216,144,72,0,288,216,144,72,0,288,216,144,72,0,603914a2ed55293204edf74e,60464aa8f328310e36e2de68,2021-03-08_16h04.04.417,Impossible2021,2020.1.3,Win32,60,60462d2f8138f40887a79fc4,,,,s,0,1.756855,0,4,4,34,1,2,,
,,,,,,,,,,,,,,,,,,,images/69possible.bmp,,,,,,,,,,,,,,,,images/69possible.bmp,,,,,,,,,,,,,,,,d,possible,216,216,144,72,0,288,216,144,72,0,288,216,144,72,0,288,144,144,72,0,288,216,144,72,0,288,216,144,72,0,288,216,603914a2ed55293204edf74e,60464aa8f328310e36e2de68,2021-03-08_16h04.04.417,Impossible2021,2020.1.3,Win32,60,60462d2f8138f40887a79fc4,,,,d,1,2.35081,0,5,5,23,1,1,,
,,,,,,,,,,,,,,,,,,,,,images/22possible.bmp,images/22possible.bmp,,,,,,,,,,,,,,,,images/22possible.bmp,,,,,,,,,,,,,d,possible,216,216,144,72,0,288,216,144,72,0,288,216,144,72,0,288,144,144,72,0,288,216,144,72,0,288,216,144,72,0,288,216,603914a2ed55293204edf74e,60464aa8f328310e36e2de68,2021-03-08_16h04.04.417,Impossible2021,2020.1.3,Win32,60,60462d2f8138f40887a79fc4,,,,s,0,2.19938,0,6,6,33,1,2,,
,,,,,,,,,,,,,,,,,,,,,,,images/05impossible.bmp,images/05impossible.bmp,images/05impossible.bmp,,,,,,,,,,,,,,,,images/05impossible.bmp,,,,,,,,,,s,impossible,216,216,144,72,0,288,216,144,72,0,288,216,144,72,0,288,216,216,144,72,0,288,216,144,72,0,288,216,144,72,0,288,603914a2ed55293204edf74e,60464aa8f328310e36e2de68,2021-03-08_16h04.04.417,Impossible2021,2020.1.3,Win32,60,60462d2f8138f40887a79fc4,,,,s,1,1.863955,0,7,7,49,1,3,,
,,,,,,,,,,,,,,,,,,,,,images/08possible.bmp,images/08possible.bmp,,,,,,,,,,,,,,,images/08possible.bmp,,,,,,,,,,,,,,d,possible,288,288,216,144,72,0,288,216,144,72,0,288,216,144,72,0,216,216,144,72,0,288,216,144,72,0,288,216,144,72,0,288,603914a2ed55293204edf74e,60464aa8f328310e36e2de68,2021-03-08_16h04.04.417,Impossible2021,2020.1.3,Win32,60,60462d2f8138f40887a79fc4,,,,s,0,2.544615,0,8,8,32,1,2,,
,,,,,,,,,,,,,,,,,,,images/24impossible.bmp,,,,,,,,,,,,,,,,images/24impossible.bmp,,,,,,,,,,,,,,,,d,impossible,0,0,288,216,144,72,0,288,216,144,72,0,288,216,144,72,288,288,216,144,72,0,288,216,144,72,0,288,216,144,72,0,603914a2ed55293204edf74e,60464aa8f328310e36e2de68,2021-03-08_16h04.04.417,Impossible2021,2020.1.3,Win32,60,60462d2f8138f40887a79fc4,,,,s,0,1.96217,0,9,9,10,1,1,,
,,,,,,,,,,,,,,,,,,,,,,,images/55possible.bmp,images/55possible.bmp,images/55possible.bmp,,,,,,,,,,,,,,images/55possible.bmp,,,,,,,,,,,,s,possible,72,72,0,288,216,144,72,0,288,216,144,72,0,288,216,144,72,72,0,288,216,144,72,0,288,216,144,72,0,288,216,144,603914a2ed55293204edf74e,60464aa8f328310e36e2de68,2021-03-08_16h04.04.417,Impossible2021,2020.1.3,Win32,60,60462d2f8138f40887a79fc4,,,,s,1,2.381135,0,10,10,63,1,3,,
,,,,,,,,,,,,,,,,,,,,,images/05possible.bmp,images/05possible.bmp,,,,,,,,,,,,,,,,images/05possible.bmp,,,,,,,,,,,,,d,possible,216,216,144,72,0,288,216,144,72,0,288,216,144,72,0,288,144,144,72,0,288,216,144,72,0,288,216,144,72,0,288,216,603914a2ed55293204edf74e,60464aa8f328310e36e2de68,2021-03-08_16h04.04.417,Impossible2021,2020.1.3,Win32,60,60462d2f8138f40887a79fc4,,,,s,0,2.310125,0,11,11,31,1,2,,
,,,,,,,,,,,,,,,,,,,,,,,images/24impossible.bmp,images/24impossible.bmp,images/24impossible.bmp,,,,,,,,,,,,,,,images/24impossible.bmp,,,,,,,,,,,s,impossible,0,0,288,216,144,72,0,288,216,144,72,0,288,216,144,72,0,0,288,216,144,72,0,288,216,144,72,0,288,216,144,72,603914a2ed55293204edf74e,60464aa8f328310e36e2de68,2021-03-08_16h04.04.417,Impossible2021,2020.1.3,Win32,60,60462d2f8138f40887a79fc4,,,,s,1,1.68878,0,12,12,52,1,3,,
,,,,,,,,,,,,,,,,,,,,,,,,,,,,,,images/69possible.bmp,images/69possible.bmp,images/69possible.bmp,images/69possible.bmp,images/69possible.bmp,,,,,,,,,,,,,,images/69possible.bmp,,,s,possible,216,216,144,72,0,288,216,144,72,0,288,216,144,72,0,288,216,216,144,72,0,288,216,144,72,0,288,216,144,72,0,288,603914a2ed55293204edf74e,60464aa8f328310e36e2de68,2021-03-08_16h04.04.417,Impossible2021,2020.1.3,Win32,60,60462d2f8138f40887a79fc4,,,,d,0,1.518405,0,13,13,113,1,5,,
,,,,,,,,,,,,,,,,,,,,,,,,,,,,,,images/03impossible.bmp,images/03impossible.bmp,images/03impossible.bmp,images/03impossible.bmp,images/03impossible.bmp,,,,,,,,,,,,,,,,images/03impossible.bmp,d,impossible,72,72,0,288,216,144,72,0,288,216,144,72,0,288,216,144,0,0,288,216,144,72,0,288,216,144,72,0,288,216,144,72,603914a2ed55293204edf74e,60464aa8f328310e36e2de68,2021-03-08_16h04.04.417,Impossible2021,2020.1.3,Win32,60,60462d2f8138f40887a79fc4,,,,s,0,1.063875,0,14,14,102,1,5,,
,,,,,,,,,,,,,,,,,,,,,,,,,,,,,,images/03impossible.bmp,images/03impossible.bmp,images/03impossible.bmp,images/03impossible.bmp,images/03impossible.bmp,,,,,,,,,,,,,images/03impossible.bmp,,,,s,impossible,72,72,0,288,216,144,72,0,288,216,144,72,0,288,216,144,72,72,0,288,216,144,72,0,288,216,144,72,0,288,216,144,603914a2ed55293204edf74e,60464aa8f328310e36e2de68,2021-03-08_16h04.04.417,Impossible2021,2020.1.3,Win32,60,60462d2f8138f40887a79fc4,,,,s,1,2.847805,0,15,15,96,1,5,,
,,,,,,,,,,,,,,,,,,,,images/55possible.bmp,,,,,,,,,,,,,,,,images/55possible.bmp,,,,,,,,,,,,,,,s,possible,72,72,0,288,216,144,72,0,288,216,144,72,0,288,216,144,72,72,0,288,216,144,72,0,288,216,144,72,0,288,216,144,603914a2ed55293204edf74e,60464aa8f328310e36e2de68,2021-03-08_16h04.04.417,Impossible2021,2020.1.3,Win32,60,60462d2f8138f40887a79fc4,,,,s,1,0.961015,0,16,16,15,1,1,,
,,,,,,,,,,,,,,,,,,,,,,,images/24impossible.bmp,images/24impossible.bmp,images/24impossible.bmp,,,,,,,,,,,,,,,images/24impossible.bmp,,,,,,,,,,,d,impossible,0,0,288,216,144,72,0,288,216,144,72,0,288,216,144,72,288,288,216,144,72,0,288,216,144,72,0,288,216,144,72,0,603914a2ed55293204edf74e,60464aa8f328310e36e2de68,2021-03-08_16h04.04.417,Impossible2021,2020.1.3,Win32,60,60462d2f8138f40887a79fc4,,,,s,0,1.286085,0,17,17,58,1,3,,
,,,,,,,,,,,,,,,,,,,,,,,,,,,,,,images/08impossible.bmp,images/08impossible.bmp,images/08impossible.bmp,images/08impossible.bmp,images/08impossible.bmp,,,,,,,,,,,,,,,,images/08impossible.bmp,s,impossible,288,288,216,144,72,0,288,216,144,72,0,288,216,144,72,0,288,288,216,144,72,0,288,216,144,72,0,288,216,144,72,0,603914a2ed55293204edf74e,60464aa8f328310e36e2de68,2021-03-08_16h04.04.417,Impossible2021,2020.1.3,Win32,60,60462d2f8138f40887a79fc4,,,,s,1,1.61346,0,18,18,98,1,5,,
,,,,,,,,,,,,,,,,,,,,,,,,,,images/42impossible.bmp,images/42impossible.bmp,images/42impossible.bmp,images/42impossible.bmp,,,,,,,,,,,,,,,,images/42impossible.bmp,,,,,,d,impossible,144,144,72,0,288,216,144,72,0,288,216,144,72,0,288,216,72,72,0,288,216,144,72,0,288,216,144,72,0,288,216,144,603914a2ed55293204edf74e,60464aa8f328310e36e2de68,2021-03-08_16h04.04.417,Impossible2021,2020.1.3,Win32,60,60462d2f8138f40887a79fc4,,,,s,0,2.95061,0,19,19,91,1,4,,
,,,,,,,,,,,,,,,,,,,,,images/65impossible.bmp,images/65impossible.bmp,,,,,,,,,,,,,,,images/65impossible.bmp,,,,,,,,,,,,,,s,impossible,144,144,72,0,288,216,144,72,0,288,216,144,72,0,288,216,144,144,72,0,288,216,144,72,0,288,216,144,72,0,288,216,603914a2ed55293204edf74e,60464aa8f328310e36e2de68,2021-03-08_16h04.04.417,Impossible2021,2020.1.3,Win32,60,60462d2f8138f40887a79fc4,,,,s,1,0.93904,0,20,20,40,1,2,,
,,,,,,,,,,,,,,,,,,,,,images/03possible.bmp,images/03possible.bmp,,,,,,,,,,,,,,,images/03possible.bmp,,,,,,,,,,,,,,d,possible,72,72,0,288,216,144,72,0,288,216,144,72,0,288,216,144,0,0,288,216,144,72,0,288,216,144,72,0,288,216,144,72,603914a2ed55293204edf74e,60464aa8f328310e36e2de68,2021-03-08_16h04.04.417,Impossible2021,2020.1.3,Win32,60,60462d2f8138f40887a79fc4,,,,d,1,1.128445,0,21,21,30,1,2,,
,,,,,,,,,,,,,,,,,,,images/55possible.bmp,,,,,,,,,,,,,,,,images/55possible.bmp,,,,,,,,,,,,,,,,d,possible,72,72,0,288,216,144,72,0,288,216,144,72,0,288,216,144,0,0,288,216,144,72,0,288,216,144,72,0,288,216,144,72,603914a2ed55293204edf74e,60464aa8f328310e36e2de68,2021-03-08_16h04.04.417,Impossible2021,2020.1.3,Win32,60,60462d2f8138f40887a79fc4,,,,d,1,1.160645,0,22,22,21,1,1,,
,,,,,,,,,,,,,,,,,,,,images/25impossible.bmp,,,,,,,,,,,,,,,,images/25impossible.bmp,,,,,,,,,,,,,,,d,impossible,72,72,0,288,216,144,72,0,288,216,144,72,0,288,216,144,0,0,288,216,144,72,0,288,216,144,72,0,288,216,144,72,603914a2ed55293204edf74e,60464aa8f328310e36e2de68,2021-03-08_16h04.04.417,Impossible2021,2020.1.3,Win32,60,60462d2f8138f40887a79fc4,,,,d,1,1.444875,0,23,23,11,1,1,,
,,,,,,,,,,,,,,,,,,,,,,,,,,,,,,images/65possible.bmp,images/65possible.bmp,images/65possible.bmp,images/65possible.bmp,images/65possible.bmp,,,,,,,,,,,,,,,images/65possible.bmp,,s,possible,144,144,72,0,288,216,144,72,0,288,216,144,72,0,288,216,144,144,72,0,288,216,144,72,0,288,216,144,72,0,288,216,603914a2ed55293204edf74e,60464aa8f328310e36e2de68,2021-03-08_16h04.04.417,Impossible2021,2020.1.3,Win32,60,60462d2f8138f40887a79fc4,,,,s,1,1.29638,0,24,24,112,1,5,,
,,,,,,,,,,,,,,,,,,,,,,,,,,,,,,images/69possible.bmp,images/69possible.bmp,images/69possible.bmp,images/69possible.bmp,images/69possible.bmp,,,,,,,,,,,,,,images/69possible.bmp,,,d,possible,216,216,144,72,0,288,216,144,72,0,288,216,144,72,0,288,144,144,72,0,288,216,144,72,0,288,216,144,72,0,288,216,603914a2ed55293204edf74e,60464aa8f328310e36e2de68,2021-03-08_16h04.04.417,Impossible2021,2020.1.3,Win32,60,60462d2f8138f40887a79fc4,,,,d,1,1.2176,0,25,25,119,1,5,,
,,,,,,,,,,,,,,,,,,,,,,,,,,images/38impossible.bmp,images/38impossible.bmp,images/38impossible.bmp,images/38impossible.bmp,,,,,,,,,,,,,images/38impossible.bmp,,,,,,,,,s,impossible,72,72,0,288,216,144,72,0,288,216,144,72,0,288,216,144,72,72,0,288,216,144,72,0,288,216,144,72,0,288,216,144,603914a2ed55293204edf74e,60464aa8f328310e36e2de68,2021-03-08_16h04.04.417,Impossible2021,2020.1.3,Win32,60,60462d2f8138f40887a79fc4,,,,d,0,1.73543,0,26,26,84,1,4,,
,,,,,,,,,,,,,,,,,,,,,,,,,,,,,,images/55possible.bmp,images/55possible.bmp,images/55possible.bmp,images/55possible.bmp,images/55possible.bmp,,,,,,,,,,,,images/55possible.bmp,,,,,d,possible,72,72,0,288,216,144,72,0,288,216,144,72,0,288,216,144,0,0,288,216,144,72,0,288,216,144,72,0,288,216,144,72,603914a2ed55293204edf74e,60464aa8f328310e36e2de68,2021-03-08_16h04.04.417,Impossible2021,2020.1.3,Win32,60,60462d2f8138f40887a79fc4,,,,s,0,2.135795,0,27,27,117,1,5,,
,,,,,,,,,,,,,,,,,,,,,,,images/22impossible.bmp,images/22impossible.bmp,images/22impossible.bmp,,,,,,,,,,,,,,,,images/22impossible.bmp,,,,,,,,,,s,impossible,216,216,144,72,0,288,216,144,72,0,288,216,144,72,0,288,216,216,144,72,0,288,216,144,72,0,288,216,144,72,0,288,603914a2ed55293204edf74e,60464aa8f328310e36e2de68,2021-03-08_16h04.04.417,Impossible2021,2020.1.3,Win32,60,60462d2f8138f40887a79fc4,,,,s,1,2.42017,0,28,28,51,1,3,,
,,,,,,,,,,,,,,,,,,,,,,,,,,,,,,images/42possible.bmp,images/42possible.bmp,images/42possible.bmp,images/42possible.bmp,images/42possible.bmp,,,,,,,,,,,,,images/42possible.bmp,,,,s,possible,144,144,72,0,288,216,144,72,0,288,216,144,72,0,288,216,144,144,72,0,288,216,144,72,0,288,216,144,72,0,288,216,603914a2ed55293204edf74e,60464aa8f328310e36e2de68,2021-03-08_16h04.04.417,Impossible2021,2020.1.3,Win32,60,60462d2f8138f40887a79fc4,,,,s,1,1.542855,0,29,29,109,1,5,,
,,,,,,,,,,,,,,,,,,,,,,,,,,images/44impossible.bmp,images/44impossible.bmp,images/44impossible.bmp,images/44impossible.bmp,,,,,,,,,,,,,images/44impossible.bmp,,,,,,,,,d,impossible,216,216,144,72,0,288,216,144,72,0,288,216,144,72,0,288,144,144,72,0,288,216,144,72,0,288,216,144,72,0,288,216,603914a2ed55293204edf74e,60464aa8f328310e36e2de68,2021-03-08_16h04.04.417,Impossible2021,2020.1.3,Win32,60,60462d2f8138f40887a79fc4,,,,d,1,1.31242,0,30,30,92,1,4,,
,,,,,,,,,,,,,,,,,,,,,,,images/08impossible.bmp,images/08impossible.bmp,images/08impossible.bmp,,,,,,,,,,,,,,,images/08impossible.bmp,,,,,,,,,,,d,impossible,288,288,216,144,72,0,288,216,144,72,0,288,216,144,72,0,216,216,144,72,0,288,216,144,72,0,288,216,144,72,0,288,603914a2ed55293204edf74e,60464aa8f328310e36e2de68,2021-03-08_16h04.04.417,Impossible2021,2020.1.3,Win32,60,60462d2f8138f40887a79fc4,,,,d,1,1.218455,0,31,31,56,1,3,,
,,,,,,,,,,,,,,,,,,,,,images/55impossible.bmp,images/55impossible.bmp,,,,,,,,,,,,,,,,images/55impossible.bmp,,,,,,,,,,,,,d,impossible,72,72,0,288,216,144,72,0,288,216,144,72,0,288,216,144,0,0,288,216,144,72,0,288,216,144,72,0,288,216,144,72,603914a2ed55293204edf74e,60464aa8f328310e36e2de68,2021-03-08_16h04.04.417,Impossible2021,2020.1.3,Win32,60,60462d2f8138f40887a79fc4,,,,d,1,2.22261,0,32,32,45,1,2,,
,,,,,,,,,,,,,,,,,,,,,images/08possible.bmp,images/08possible.bmp,,,,,,,,,,,,,,,images/08possible.bmp,,,,,,,,,,,,,,s,possible,288,288,216,144,72,0,288,216,144,72,0,288,216,144,72,0,288,288,216,144,72,0,288,216,144,72,0,288,216,144,72,0,603914a2ed55293204edf74e,60464aa8f328310e36e2de68,2021-03-08_16h04.04.417,Impossible2021,2020.1.3,Win32,60,60462d2f8138f40887a79fc4,,,,s,1,1.26527,0,33,33,26,1,2,,
,,,,,,,,,,,,,,,,,,,,,images/25possible.bmp,images/25possible.bmp,,,,,,,,,,,,,,,,images/25possible.bmp,,,,,,,,,,,,,s,possible,72,72,0,288,216,144,72,0,288,216,144,72,0,288,216,144,72,72,0,288,216,144,72,0,288,216,144,72,0,288,216,144,603914a2ed55293204edf74e,60464aa8f328310e36e2de68,2021-03-08_16h04.04.417,Impossible2021,2020.1.3,Win32,60,60462d2f8138f40887a79fc4,,,,s,1,1.16316,0,34,34,29,1,2,,
,,,,,,,,,,,,,,,,,,,,,,,,,,images/22possible.bmp,images/22possible.bmp,images/22possible.bmp,images/22possible.bmp,,,,,,,,,,,,,,images/22possible.bmp,,,,,,,,s,possible,216,216,144,72,0,288,216,144,72,0,288,216,144,72,0,288,216,216,144,72,0,288,216,144,72,0,288,216,144,72,0,288,603914a2ed55293204edf74e,60464aa8f328310e36e2de68,2021-03-08_16h04.04.417,Impossible2021,2020.1.3,Win32,60,60462d2f8138f40887a79fc4,,,,s,1,1.811915,0,35,35,75,1,4,,
,,,,,,,,,,,,,,,,,,,images/05impossible.bmp,,,,,,,,,,,,,,,,images/05impossible.bmp,,,,,,,,,,,,,,,,s,impossible,216,216,144,72,0,288,216,144,72,0,288,216,144,72,0,288,216,216,144,72,0,288,216,144,72,0,288,216,144,72,0,288,603914a2ed55293204edf74e,60464aa8f328310e36e2de68,2021-03-08_16h04.04.417,Impossible2021,2020.1.3,Win32,60,60462d2f8138f40887a79fc4,,,,s,1,1.18065,0,36,36,1,1,1,,
,,,,,,,,,,,,,,,,,,,,,,,,,,images/03possible.bmp,images/03possible.bmp,images/03possible.bmp,images/03possible.bmp,,,,,,,,,,,,,,,,images/03possible.bmp,,,,,,d,possible,72,72,0,288,216,144,72,0,288,216,144,72,0,288,216,144,0,0,288,216,144,72,0,288,216,144,72,0,288,216,144,72,603914a2ed55293204edf74e,60464aa8f328310e36e2de68,2021-03-08_16h04.04.417,Impossible2021,2020.1.3,Win32,60,60462d2f8138f40887a79fc4,,,,d,1,1.262865,0,37,37,78,1,4,,
,,,,,,,,,,,,,,,,,,,,,images/69impossible.bmp,images/69impossible.bmp,,,,,,,,,,,,,,,,images/69impossible.bmp,,,,,,,,,,,,,s,impossible,216,216,144,72,0,288,216,144,72,0,288,216,144,72,0,288,216,216,144,72,0,288,216,144,72,0,288,216,144,72,0,288,603914a2ed55293204edf74e,60464aa8f328310e36e2de68,2021-03-08_16h04.04.417,Impossible2021,2020.1.3,Win32,60,60462d2f8138f40887a79fc4,,,,s,1,1.106555,0,38,38,41,1,2,,
,,,,,,,,,,,,,,,,,,,,,,,,,,,,,,images/65possible.bmp,images/65possible.bmp,images/65possible.bmp,images/65possible.bmp,images/65possible.bmp,,,,,,,,,,,,,images/65possible.bmp,,,,d,possible,144,144,72,0,288,216,144,72,0,288,216,144,72,0,288,216,72,72,0,288,216,144,72,0,288,216,144,72,0,288,216,144,603914a2ed55293204edf74e,60464aa8f328310e36e2de68,2021-03-08_16h04.04.417,Impossible2021,2020.1.3,Win32,60,60462d2f8138f40887a79fc4,,,,d,1,1.113925,0,39,39,118,1,5,,
,,,,,,,,,,,,,,,,,,,images/08impossible.bmp,,,,,,,,,,,,,,,,images/08impossible.bmp,,,,,,,,,,,,,,,,d,impossible,288,288,216,144,72,0,288,216,144,72,0,288,216,144,72,0,216,216,144,72,0,288,216,144,72,0,288,216,144,72,0,288,603914a2ed55293204edf74e,60464aa8f328310e36e2de68,2021-03-08_16h04.04.417,Impossible2021,2020.1.3,Win32,60,60462d2f8138f40887a79fc4,,,,d,1,0.927335,0,40,40,8,1,1,,
,,,,,,,,,,,,,,,,,,,,,,,,,,,,,,images/05impossible.bmp,images/05impossible.bmp,images/05impossible.bmp,images/05impossible.bmp,images/05impossible.bmp,,,,,,,,,,,,,,,images/05impossible.bmp,,s,impossible,216,216,144,72,0,288,216,144,72,0,288,216,144,72,0,288,216,216,144,72,0,288,216,144,72,0,288,216,144,72,0,288,603914a2ed55293204edf74e,60464aa8f328310e36e2de68,2021-03-08_16h04.04.417,Impossible2021,2020.1.3,Win32,60,60462d2f8138f40887a79fc4,,,,s,1,1.51287,0,41,41,97,1,5,,
,,,,,,,,,,,,,,,,,,,,,,,,,,images/38impossible.bmp,images/38impossible.bmp,images/38impossible.bmp,images/38impossible.bmp,,,,,,,,,,,,,,,images/38impossible.bmp,,,,,,,d,impossible,72,72,0,288,216,144,72,0,288,216,144,72,0,288,216,144,0,0,288,216,144,72,0,288,216,144,72,0,288,216,144,72,603914a2ed55293204edf74e,60464aa8f328310e36e2de68,2021-03-08_16h04.04.417,Impossible2021,2020.1.3,Win32,60,60462d2f8138f40887a79fc4,,,,d,1,1.177405,0,42,42,90,1,4,,
,,,,,,,,,,,,,,,,,,,,,images/42impossible.bmp,images/42impossible.bmp,,,,,,,,,,,,,,,,images/42impossible.bmp,,,,,,,,,,,,,d,impossible,144,144,72,0,288,216,144,72,0,288,216,144,72,0,288,216,72,72,0,288,216,144,72,0,288,216,144,72,0,288,216,144,603914a2ed55293204edf74e,60464aa8f328310e36e2de68,2021-03-08_16h04.04.417,Impossible2021,2020.1.3,Win32,60,60462d2f8138f40887a79fc4,,,,d,1,1.12345,0,43,43,43,1,2,,
,,,,,,,,,,,,,,,,,,,images/44possible.bmp,,,,,,,,,,,,,,,,images/44possible.bmp,,,,,,,,,,,,,,,,s,possible,216,216,144,72,0,288,216,144,72,0,288,216,144,72,0,288,216,216,144,72,0,288,216,144,72,0,288,216,144,72,0,288,603914a2ed55293204edf74e,60464aa8f328310e36e2de68,2021-03-08_16h04.04.417,Impossible2021,2020.1.3,Win32,60,60462d2f8138f40887a79fc4,,,,s,1,1.16259,0,44,44,14,1,1,,
,,,,,,,,,,,,,,,,,,,,images/42possible.bmp,,,,,,,,,,,,,,,,images/42possible.bmp,,,,,,,,,,,,,,,s,possible,144,144,72,0,288,216,144,72,0,288,216,144,72,0,288,216,144,144,72,0,288,216,144,72,0,288,216,144,72,0,288,216,603914a2ed55293204edf74e,60464aa8f328310e36e2de68,2021-03-08_16h04.04.417,Impossible2021,2020.1.3,Win32,60,60462d2f8138f40887a79fc4,,,,s,1,1.03666,0,45,45,13,1,1,,
,,,,,,,,,,,,,,,,,,,,,images/05possible.bmp,images/05possible.bmp,,,,,,,,,,,,,,,,images/05possible.bmp,,,,,,,,,,,,,s,possible,216,216,144,72,0,288,216,144,72,0,288,216,144,72,0,288,216,216,144,72,0,288,216,144,72,0,288,216,144,72,0,288,603914a2ed55293204edf74e,60464aa8f328310e36e2de68,2021-03-08_16h04.04.417,Impossible2021,2020.1.3,Win32,60,60462d2f8138f40887a79fc4,,,,s,1,2.085245,0,46,46,25,1,2,,
,,,,,,,,,,,,,,,,,,,,,,,,,,images/69impossible.bmp,images/69impossible.bmp,images/69impossible.bmp,images/69impossible.bmp,,,,,,,,,,,,,,images/69impossible.bmp,,,,,,,,d,impossible,216,216,144,72,0,288,216,144,72,0,288,216,144,72,0,288,144,144,72,0,288,216,144,72,0,288,216,144,72,0,288,216,603914a2ed55293204edf74e,60464aa8f328310e36e2de68,2021-03-08_16h04.04.417,Impossible2021,2020.1.3,Win32,60,60462d2f8138f40887a79fc4,,,,s,0,1.766995,0,47,47,95,1,4,,
,,,,,,,,,,,,,,,,,,,,,,,,,,images/05possible.bmp,images/05possible.bmp,images/05possible.bmp,images/05possible.bmp,,,,,,,,,,,,,,,,images/05possible.bmp,,,,,,s,possible,216,216,144,72,0,288,216,144,72,0,288,216,144,72,0,288,216,216,144,72,0,288,216,144,72,0,288,216,144,72,0,288,603914a2ed55293204edf74e,60464aa8f328310e36e2de68,2021-03-08_16h04.04.417,Impossible2021,2020.1.3,Win32,60,60462d2f8138f40887a79fc4,,,,s,1,1.279935,0,48,48,73,1,4,,
,,,,,,,,,,,,,,,,,,,,,images/44impossible.bmp,images/44impossible.bmp,,,,,,,,,,,,,,,images/44impossible.bmp,,,,,,,,,,,,,,s,impossible,216,216,144,72,0,288,216,144,72,0,288,216,144,72,0,288,216,216,144,72,0,288,216,144,72,0,288,216,144,72,0,288,603914a2ed55293204edf74e,60464aa8f328310e36e2de68,2021-03-08_16h04.04.417,Impossible2021,2020.1.3,Win32,60,60462d2f8138f40887a79fc4,,,,s,1,1.02921,0,49,49,38,1,2,,
,,,,,,,,,,,,,,,,,,,,images/22impossible.bmp,,,,,,,,,,,,,,,,images/22impossible.bmp,,,,,,,,,,,,,,,s,impossible,216,216,144,72,0,288,216,144,72,0,288,216,144,72,0,288,216,216,144,72,0,288,216,144,72,0,288,216,144,72,0,288,603914a2ed55293204edf74e,60464aa8f328310e36e2de68,2021-03-08_16h04.04.417,Impossible2021,2020.1.3,Win32,60,60462d2f8138f40887a79fc4,,,,s,1,1.046845,0,50,50,3,1,1,,
,,,,,,,,,,,,,,,,,,,,,images/55impossible.bmp,images/55impossible.bmp,,,,,,,,,,,,,,,,images/55impossible.bmp,,,,,,,,,,,,,s,impossible,72,72,0,288,216,144,72,0,288,216,144,72,0,288,216,144,72,72,0,288,216,144,72,0,288,216,144,72,0,288,216,144,603914a2ed55293204edf74e,60464aa8f328310e36e2de68,2021-03-08_16h04.04.417,Impossible2021,2020.1.3,Win32,60,60462d2f8138f40887a79fc4,,,,s,1,1.65475,0,51,51,39,1,2,,
,,,,,,,,,,,,,,,,,,,,,,,images/05impossible.bmp,images/05impossible.bmp,images/05impossible.bmp,,,,,,,,,,,,,,,,images/05impossible.bmp,,,,,,,,,,d,impossible,216,216,144,72,0,288,216,144,72,0,288,216,144,72,0,288,144,144,72,0,288,216,144,72,0,288,216,144,72,0,288,216,603914a2ed55293204edf74e,60464aa8f328310e36e2de68,2021-03-08_16h04.04.417,Impossible2021,2020.1.3,Win32,60,60462d2f8138f40887a79fc4,,,,d,1,0.88277,0,52,52,55,1,3,,
,,,,,,,,,,,,,,,,,,,,images/69possible.bmp,,,,,,,,,,,,,,,,images/69possible.bmp,,,,,,,,,,,,,,,s,possible,216,216,144,72,0,288,216,144,72,0,288,216,144,72,0,288,216,216,144,72,0,288,216,144,72,0,288,216,144,72,0,288,603914a2ed55293204edf74e,60464aa8f328310e36e2de68,2021-03-08_16h04.04.417,Impossible2021,2020.1.3,Win32,60,60462d2f8138f40887a79fc4,,,,s,1,1.24321,0,53,53,17,1,1,,
,,,,,,,,,,,,,,,,,,,,,,,,,,images/08possible.bmp,images/08possible.bmp,images/08possible.bmp,images/08possible.bmp,,,,,,,,,,,,,images/08possible.bmp,,,,,,,,,d,possible,288,288,216,144,72,0,288,216,144,72,0,288,216,144,72,0,216,216,144,72,0,288,216,144,72,0,288,216,144,72,0,288,603914a2ed55293204edf74e,60464aa8f328310e36e2de68,2021-03-08_16h04.04.417,Impossible2021,2020.1.3,Win32,60,60462d2f8138f40887a79fc4,,,,d,1,1.16322,0,54,54,80,1,4,,
,,,,,,,,,,,,,,,,,,,,,,,images/55possible.bmp,images/55possible.bmp,images/55possible.bmp,,,,,,,,,,,,,,,images/55possible.bmp,,,,,,,,,,,d,possible,72,72,0,288,216,144,72,0,288,216,144,72,0,288,216,144,0,0,288,216,144,72,0,288,216,144,72,0,288,216,144,72,603914a2ed55293204edf74e,60464aa8f328310e36e2de68,2021-03-08_16h04.04.417,Impossible2021,2020.1.3,Win32,60,60462d2f8138f40887a79fc4,,,,d,1,1.654595,0,55,55,69,1,3,,
,,,,,,,,,,,,,,,,,,,,,,,images/44possible.bmp,images/44possible.bmp,images/44possible.bmp,,,,,,,,,,,,,,images/44possible.bmp,,,,,,,,,,,,d,possible,216,216,144,72,0,288,216,144,72,0,288,216,144,72,0,288,144,144,72,0,288,216,144,72,0,288,216,144,72,0,288,216,603914a2ed55293204edf74e,60464aa8f328310e36e2de68,2021-03-08_16h04.04.417,Impossible2021,2020.1.3,Win32,60,60462d2f8138f40887a79fc4,,,,d,1,1.330325,0,56,56,68,1,3,,
,,,,,,,,,,,,,,,,,,,images/38possible.bmp,,,,,,,,,,,,,,,,images/38possible.bmp,,,,,,,,,,,,,,,,s,possible,72,72,0,288,216,144,72,0,288,216,144,72,0,288,216,144,72,72,0,288,216,144,72,0,288,216,144,72,0,288,216,144,603914a2ed55293204edf74e,60464aa8f328310e36e2de68,2021-03-08_16h04.04.417,Impossible2021,2020.1.3,Win32,60,60462d2f8138f40887a79fc4,,,,s,1,1.50038,0,57,57,12,1,1,,
,,,,,,,,,,,,,,,,,,,,,,,,,,images/69impossible.bmp,images/69impossible.bmp,images/69impossible.bmp,images/69impossible.bmp,,,,,,,,,,,,,,,,images/69impossible.bmp,,,,,,s,impossible,216,216,144,72,0,288,216,144,72,0,288,216,144,72,0,288,216,216,144,72,0,288,216,144,72,0,288,216,144,72,0,288,603914a2ed55293204edf74e,60464aa8f328310e36e2de68,2021-03-08_16h04.04.417,Impossible2021,2020.1.3,Win32,60,60462d2f8138f40887a79fc4,,,,d,0,2.19819,0,58,58,89,1,4,,
,,,,,,,,,,,,,,,,,,,,,,,images/03impossible.bmp,images/03impossible.bmp,images/03impossible.bmp,,,,,,,,,,,,,,,images/03impossible.bmp,,,,,,,,,,,s,impossible,72,72,0,288,216,144,72,0,288,216,144,72,0,288,216,144,72,72,0,288,216,144,72,0,288,216,144,72,0,288,216,144,603914a2ed55293204edf74e,60464aa8f328310e36e2de68,2021-03-08_16h04.04.417,Impossible2021,2020.1.3,Win32,60,60462d2f8138f40887a79fc4,,,,s,1,1.03028,0,59,59,48,1,3,,
,,,,,,,,,,,,,,,,,,,,,,,,,,images/22possible.bmp,images/22possible.bmp,images/22possible.bmp,images/22possible.bmp,,,,,,,,,,,,,,,images/22possible.bmp,,,,,,,d,possible,216,216,144,72,0,288,216,144,72,0,288,216,144,72,0,288,144,144,72,0,288,216,144,72,0,288,216,144,72,0,288,216,603914a2ed55293204edf74e,60464aa8f328310e36e2de68,2021-03-08_16h04.04.417,Impossible2021,2020.1.3,Win32,60,60462d2f8138f40887a79fc4,,,,s,0,1.7719,0,60,60,81,1,4,,
,,,,,,,,,,,,,,,,,,,,,,,,,,images/65impossible.bmp,images/65impossible.bmp,images/65impossible.bmp,images/65impossible.bmp,,,,,,,,,,,,,,,images/65impossible.bmp,,,,,,,d,impossible,144,144,72,0,288,216,144,72,0,288,216,144,72,0,288,216,72,72,0,288,216,144,72,0,288,216,144,72,0,288,216,144,603914a2ed55293204edf74e,60464aa8f328310e36e2de68,2021-03-08_16h04.04.417,Impossible2021,2020.1.3,Win32,60,60462d2f8138f40887a79fc4,,,,s,0,1.378155,0,61,61,94,1,4,,
,,,,,,,,,,,,,,,,,,,images/03impossible.bmp,,,,,,,,,,,,,,,,images/03impossible.bmp,,,,,,,,,,,,,,,,s,impossible,72,72,0,288,216,144,72,0,288,216,144,72,0,288,216,144,72,72,0,288,216,144,72,0,288,216,144,72,0,288,216,144,603914a2ed55293204edf74e,60464aa8f328310e36e2de68,2021-03-08_16h04.04.417,Impossible2021,2020.1.3,Win32,60,60462d2f8138f40887a79fc4,,,,s,1,0.711875,0,62,62,0,1,1,,
,,,,,,,,,,,,,,,,,,,,,,,,,,,,,,images/38possible.bmp,images/38possible.bmp,images/38possible.bmp,images/38possible.bmp,images/38possible.bmp,,,,,,,,,,,,images/38possible.bmp,,,,,s,possible,72,72,0,288,216,144,72,0,288,216,144,72,0,288,216,144,72,72,0,288,216,144,72,0,288,216,144,72,0,288,216,144,603914a2ed55293204edf74e,60464aa8f328310e36e2de68,2021-03-08_16h04.04.417,Impossible2021,2020.1.3,Win32,60,60462d2f8138f40887a79fc4,,,,s,1,1.445105,0,63,63,108,1,5,,
,,,,,,,,,,,,,,,,,,,,,,,images/25impossible.bmp,images/25impossible.bmp,images/25impossible.bmp,,,,,,,,,,,,,,images/25impossible.bmp,,,,,,,,,,,,d,impossible,72,72,0,288,216,144,72,0,288,216,144,72,0,288,216,144,0,0,288,216,144,72,0,288,216,144,72,0,288,216,144,72,603914a2ed55293204edf74e,60464aa8f328310e36e2de68,2021-03-08_16h04.04.417,Impossible2021,2020.1.3,Win32,60,60462d2f8138f40887a79fc4,,,,d,1,1.17639,0,64,64,59,1,3,,
,,,,,,,,,,,,,,,,,,,,,,,images/65possible.bmp,images/65possible.bmp,images/65possible.bmp,,,,,,,,,,,,,,images/65possible.bmp,,,,,,,,,,,,d,possible,144,144,72,0,288,216,144,72,0,288,216,144,72,0,288,216,72,72,0,288,216,144,72,0,288,216,144,72,0,288,216,144,603914a2ed55293204edf74e,60464aa8f328310e36e2de68,2021-03-08_16h04.04.417,Impossible2021,2020.1.3,Win32,60,60462d2f8138f40887a79fc4,,,,d,1,1.03937,0,65,65,70,1,3,,
,,,,,,,,,,,,,,,,,,,,,,,,,,images/24possible.bmp,images/24possible.bmp,images/24possible.bmp,images/24possible.bmp,,,,,,,,,,,,,,,,images/24possible.bmp,,,,,,d,possible,0,0,288,216,144,72,0,288,216,144,72,0,288,216,144,72,288,288,216,144,72,0,288,216,144,72,0,288,216,144,72,0,603914a2ed55293204edf74e,60464aa8f328310e36e2de68,2021-03-08_16h04.04.417,Impossible2021,2020.1.3,Win32,60,60462d2f8138f40887a79fc4,,,,d,1,1.38575,0,66,66,82,1,4,,
,,,,,,,,,,,,,,,,,,,,,,,,,,,,,,images/24impossible.bmp,images/24impossible.bmp,images/24impossible.bmp,images/24impossible.bmp,images/24impossible.bmp,,,,,,,,,,,,images/24impossible.bmp,,,,,s,impossible,0,0,288,216,144,72,0,288,216,144,72,0,288,216,144,72,0,0,288,216,144,72,0,288,216,144,72,0,288,216,144,72,603914a2ed55293204edf74e,60464aa8f328310e36e2de68,2021-03-08_16h04.04.417,Impossible2021,2020.1.3,Win32,60,60462d2f8138f40887a79fc4,,,,s,1,1.05974,0,67,67,100,1,5,,
,,,,,,,,,,,,,,,,,,,,,images/38impossible.bmp,images/38impossible.bmp,,,,,,,,,,,,,,,images/38impossible.bmp,,,,,,,,,,,,,,s,impossible,72,72,0,288,216,144,72,0,288,216,144,72,0,288,216,144,72,72,0,288,216,144,72,0,288,216,144,72,0,288,216,144,603914a2ed55293204edf74e,60464aa8f328310e36e2de68,2021-03-08_16h04.04.417,Impossible2021,2020.1.3,Win32,60,60462d2f8138f40887a79fc4,,,,s,1,1.024035,0,68,68,36,1,2,,
,,,,,,,,,,,,,,,,,,,,,images/22possible.bmp,images/22possible.bmp,,,,,,,,,,,,,,,,images/22possible.bmp,,,,,,,,,,,,,s,possible,216,216,144,72,0,288,216,144,72,0,288,216,144,72,0,288,216,216,144,72,0,288,216,144,72,0,288,216,144,72,0,288,603914a2ed55293204edf74e,60464aa8f328310e36e2de68,2021-03-08_16h04.04.417,Impossible2021,2020.1.3,Win32,60,60462d2f8138f40887a79fc4,,,,d,0,1.851035,0,69,69,27,1,2,,
,,,,,,,,,,,,,,,,,,,,,images/65impossible.bmp,images/65impossible.bmp,,,,,,,,,,,,,,,images/65impossible.bmp,,,,,,,,,,,,,,d,impossible,144,144,72,0,288,216,144,72,0,288,216,144,72,0,288,216,72,72,0,288,216,144,72,0,288,216,144,72,0,288,216,144,603914a2ed55293204edf74e,60464aa8f328310e36e2de68,2021-03-08_16h04.04.417,Impossible2021,2020.1.3,Win32,60,60462d2f8138f40887a79fc4,,,,d,1,1.543545,0,70,70,46,1,2,,
,,,,,,,,,,,,,,,,,,,,images/44possible.bmp,,,,,,,,,,,,,,,,images/44possible.bmp,,,,,,,,,,,,,,,d,possible,216,216,144,72,0,288,216,144,72,0,288,216,144,72,0,288,144,144,72,0,288,216,144,72,0,288,216,144,72,0,288,216,603914a2ed55293204edf74e,60464aa8f328310e36e2de68,2021-03-08_16h04.04.417,Impossible2021,2020.1.3,Win32,60,60462d2f8138f40887a79fc4,,,,d,1,1.86808,0,71,71,20,1,1,,
,,,,,,,,,,,,,,,,,,,,,,,,,,images/42impossible.bmp,images/42impossible.bmp,images/42impossible.bmp,images/42impossible.bmp,,,,,,,,,,,,,,,,images/42impossible.bmp,,,,,,s,impossible,144,144,72,0,288,216,144,72,0,288,216,144,72,0,288,216,144,144,72,0,288,216,144,72,0,288,216,144,72,0,288,216,603914a2ed55293204edf74e,60464aa8f328310e36e2de68,2021-03-08_16h04.04.417,Impossible2021,2020.1.3,Win32,60,60462d2f8138f40887a79fc4,,,,s,1,1.213635,0,72,72,85,1,4,,
,,,,,,,,,,,,,,,,,,,,,,,,,,images/05possible.bmp,images/05possible.bmp,images/05possible.bmp,images/05possible.bmp,,,,,,,,,,,,,,,images/05possible.bmp,,,,,,,d,possible,216,216,144,72,0,288,216,144,72,0,288,216,144,72,0,288,144,144,72,0,288,216,144,72,0,288,216,144,72,0,288,216,603914a2ed55293204edf74e,60464aa8f328310e36e2de68,2021-03-08_16h04.04.417,Impossible2021,2020.1.3,Win32,60,60462d2f8138f40887a79fc4,,,,d,1,1.448275,0,73,73,79,1,4,,
,,,,,,,,,,,,,,,,,,,,images/03impossible.bmp,,,,,,,,,,,,,,,,images/03impossible.bmp,,,,,,,,,,,,,,,d,impossible,72,72,0,288,216,144,72,0,288,216,144,72,0,288,216,144,0,0,288,216,144,72,0,288,216,144,72,0,288,216,144,72,603914a2ed55293204edf74e,60464aa8f328310e36e2de68,2021-03-08_16h04.04.417,Impossible2021,2020.1.3,Win32,60,60462d2f8138f40887a79fc4,,,,d,1,1.21641,0,74,74,6,1,1,,
,,,,,,,,,,,,,,,,,,,,,,,,,,,,,,images/25impossible.bmp,images/25impossible.bmp,images/25impossible.bmp,images/25impossible.bmp,images/25impossible.bmp,,,,,,,,,,,,,images/25impossible.bmp,,,,s,impossible,72,72,0,288,216,144,72,0,288,216,144,72,0,288,216,144,72,72,0,288,216,144,72,0,288,216,144,72,0,288,216,144,603914a2ed55293204edf74e,60464aa8f328310e36e2de68,2021-03-08_16h04.04.417,Impossible2021,2020.1.3,Win32,60,60462d2f8138f40887a79fc4,,,,d,0,2.30604,0,75,75,101,1,5,,
,,,,,,,,,,,,,,,,,,,,,,,images/42possible.bmp,images/42possible.bmp,images/42possible.bmp,,,,,,,,,,,,,,images/42possible.bmp,,,,,,,,,,,,d,possible,144,144,72,0,288,216,144,72,0,288,216,144,72,0,288,216,72,72,0,288,216,144,72,0,288,216,144,72,0,288,216,144,603914a2ed55293204edf74e,60464aa8f328310e36e2de68,2021-03-08_16h04.04.417,Impossible2021,2020.1.3,Win32,60,60462d2f8138f40887a79fc4,,,,d,1,0.997685,0,76,76,67,1,3,,
,,,,,,,,,,,,,,,,,,,,,,,images/38possible.bmp,images/38possible.bmp,images/38possible.bmp,,,,,,,,,,,,,,,images/38possible.bmp,,,,,,,,,,,d,possible,72,72,0,288,216,144,72,0,288,216,144,72,0,288,216,144,0,0,288,216,144,72,0,288,216,144,72,0,288,216,144,72,603914a2ed55293204edf74e,60464aa8f328310e36e2de68,2021-03-08_16h04.04.417,Impossible2021,2020.1.3,Win32,60,60462d2f8138f40887a79fc4,,,,d,1,2.481095,0,77,77,66,1,3,,
,,,,,,,,,,,,,,,,,,,,,images/44impossible.bmp,images/44impossible.bmp,,,,,,,,,,,,,,,images/44impossible.bmp,,,,,,,,,,,,,,d,impossible,216,216,144,72,0,288,216,144,72,0,288,216,144,72,0,288,144,144,72,0,288,216,144,72,0,288,216,144,72,0,288,216,603914a2ed55293204edf74e,60464aa8f328310e36e2de68,2021-03-08_16h04.04.417,Impossible2021,2020.1.3,Win32,60,60462d2f8138f40887a79fc4,,,,d,1,2.254015,0,78,78,44,1,2,,
,,,,,,,,,,,,,,,,,,,,,images/38impossible.bmp,images/38impossible.bmp,,,,,,,,,,,,,,,images/38impossible.bmp,,,,,,,,,,,,,,d,impossible,72,72,0,288,216,144,72,0,288,216,144,72,0,288,216,144,0,0,288,216,144,72,0,288,216,144,72,0,288,216,144,72,603914a2ed55293204edf74e,60464aa8f328310e36e2de68,2021-03-08_16h04.04.417,Impossible2021,2020.1.3,Win32,60,60462d2f8138f40887a79fc4,,,,d,1,1.13546,0,79,79,42,1,2,,
,,,,,,,,,,,,,,,,,,,,,,,,,,images/65impossible.bmp,images/65impossible.bmp,images/65impossible.bmp,images/65impossible.bmp,,,,,,,,,,,,,,,images/65impossible.bmp,,,,,,,s,impossible,144,144,72,0,288,216,144,72,0,288,216,144,72,0,288,216,144,144,72,0,288,216,144,72,0,288,216,144,72,0,288,216,603914a2ed55293204edf74e,60464aa8f328310e36e2de68,2021-03-08_16h04.04.417,Impossible2021,2020.1.3,Win32,60,60462d2f8138f40887a79fc4,,,,d,0,1.493395,0,80,80,88,1,4,,
,,,,,,,,,,,,,,,,,,,,,,,,,,,,,,images/22impossible.bmp,images/22impossible.bmp,images/22impossible.bmp,images/22impossible.bmp,images/22impossible.bmp,,,,,,,,,,,,,images/22impossible.bmp,,,,s,impossible,216,216,144,72,0,288,216,144,72,0,288,216,144,72,0,288,216,216,144,72,0,288,216,144,72,0,288,216,144,72,0,288,603914a2ed55293204edf74e,60464aa8f328310e36e2de68,2021-03-08_16h04.04.417,Impossible2021,2020.1.3,Win32,60,60462d2f8138f40887a79fc4,,,,s,1,1.969535,0,81,81,99,1,5,,
,,,,,,,,,,,,,,,,,,,,,,,images/25impossible.bmp,images/25impossible.bmp,images/25impossible.bmp,,,,,,,,,,,,,,images/25impossible.bmp,,,,,,,,,,,,s,impossible,72,72,0,288,216,144,72,0,288,216,144,72,0,288,216,144,72,72,0,288,216,144,72,0,288,216,144,72,0,288,216,144,603914a2ed55293204edf74e,60464aa8f328310e36e2de68,2021-03-08_16h04.04.417,Impossible2021,2020.1.3,Win32,60,60462d2f8138f40887a79fc4,,,,s,1,1.404515,0,82,82,53,1,3,,
,,,,,,,,,,,,,,,,,,,,,,,,,,images/44impossible.bmp,images/44impossible.bmp,images/44impossible.bmp,images/44impossible.bmp,,,,,,,,,,,,,,,images/44impossible.bmp,,,,,,,s,impossible,216,216,144,72,0,288,216,144,72,0,288,216,144,72,0,288,216,216,144,72,0,288,216,144,72,0,288,216,144,72,0,288,603914a2ed55293204edf74e,60464aa8f328310e36e2de68,2021-03-08_16h04.04.417,Impossible2021,2020.1.3,Win32,60,60462d2f8138f40887a79fc4,,,,s,1,1.772785,0,83,83,86,1,4,,
,,,,,,,,,,,,,,,,,,,,,,,,,,,,,,images/55possible.bmp,images/55possible.bmp,images/55possible.bmp,images/55possible.bmp,images/55possible.bmp,,,,,,,,,,,,,,,,images/55possible.bmp,s,possible,72,72,0,288,216,144,72,0,288,216,144,72,0,288,216,144,72,72,0,288,216,144,72,0,288,216,144,72,0,288,216,144,603914a2ed55293204edf74e,60464aa8f328310e36e2de68,2021-03-08_16h04.04.417,Impossible2021,2020.1.3,Win32,60,60462d2f8138f40887a79fc4,,,,s,1,1.32361,0,84,84,111,1,5,,
,,,,,,,,,,,,,,,,,,,images/42possible.bmp,,,,,,,,,,,,,,,,images/42possible.bmp,,,,,,,,,,,,,,,,d,possible,144,144,72,0,288,216,144,72,0,288,216,144,72,0,288,216,72,72,0,288,216,144,72,0,288,216,144,72,0,288,216,144,603914a2ed55293204edf74e,60464aa8f328310e36e2de68,2021-03-08_16h04.04.417,Impossible2021,2020.1.3,Win32,60,60462d2f8138f40887a79fc4,,,,d,1,0.86064,0,85,85,19,1,1,,
,,,,,,,,,,,,,,,,,,,,,,,images/03impossible.bmp,images/03impossible.bmp,images/03impossible.bmp,,,,,,,,,,,,,,,images/03impossible.bmp,,,,,,,,,,,d,impossible,72,72,0,288,216,144,72,0,288,216,144,72,0,288,216,144,0,0,288,216,144,72,0,288,216,144,72,0,288,216,144,72,603914a2ed55293204edf74e,60464aa8f328310e36e2de68,2021-03-08_16h04.04.417,Impossible2021,2020.1.3,Win32,60,60462d2f8138f40887a79fc4,,,,d,1,2.18382,0,86,86,54,1,3,,
,,,,,,,,,,,,,,,,,,,,,,,images/38possible.bmp,images/38possible.bmp,images/38possible.bmp,,,,,,,,,,,,,,,images/38possible.bmp,,,,,,,,,,,s,possible,72,72,0,288,216,144,72,0,288,216,144,72,0,288,216,144,72,72,0,288,216,144,72,0,288,216,144,72,0,288,216,144,603914a2ed55293204edf74e,60464aa8f328310e36e2de68,2021-03-08_16h04.04.417,Impossible2021,2020.1.3,Win32,60,60462d2f8138f40887a79fc4,,,,s,1,1.00114,0,87,87,60,1,3,,
,,,,,,,,,,,,,,,,,,,,,images/03possible.bmp,images/03possible.bmp,,,,,,,,,,,,,,,images/03possible.bmp,,,,,,,,,,,,,,s,possible,72,72,0,288,216,144,72,0,288,216,144,72,0,288,216,144,72,72,0,288,216,144,72,0,288,216,144,72,0,288,216,144,603914a2ed55293204edf74e,60464aa8f328310e36e2de68,2021-03-08_16h04.04.417,Impossible2021,2020.1.3,Win32,60,60462d2f8138f40887a79fc4,,,,s,1,1.031775,0,88,88,24,1,2,,
,,,,,,,,,,,,,,,,,,,,images/38possible.bmp,,,,,,,,,,,,,,,,images/38possible.bmp,,,,,,,,,,,,,,,d,possible,72,72,0,288,216,144,72,0,288,216,144,72,0,288,216,144,0,0,288,216,144,72,0,288,216,144,72,0,288,216,144,72,603914a2ed55293204edf74e,60464aa8f328310e36e2de68,2021-03-08_16h04.04.417,Impossible2021,2020.1.3,Win32,60,60462d2f8138f40887a79fc4,,,,d,1,0.979875,0,89,89,18,1,1,,
,,,,,,,,,,,,,,,,,,,,,,,,,,images/03possible.bmp,images/03possible.bmp,images/03possible.bmp,images/03possible.bmp,,,,,,,,,,,,,,images/03possible.bmp,,,,,,,,s,possible,72,72,0,288,216,144,72,0,288,216,144,72,0,288,216,144,72,72,0,288,216,144,72,0,288,216,144,72,0,288,216,144,603914a2ed55293204edf74e,60464aa8f328310e36e2de68,2021-03-08_16h04.04.417,Impossible2021,2020.1.3,Win32,60,60462d2f8138f40887a79fc4,,,,s,1,1.730145,0,90,90,72,1,4,,
,,,,,,,,,,,,,,,,,,,images/25impossible.bmp,,,,,,,,,,,,,,,,images/25impossible.bmp,,,,,,,,,,,,,,,,s,impossible,72,72,0,288,216,144,72,0,288,216,144,72,0,288,216,144,72,72,0,288,216,144,72,0,288,216,144,72,0,288,216,144,603914a2ed55293204edf74e,60464aa8f328310e36e2de68,2021-03-08_16h04.04.417,Impossible2021,2020.1.3,Win32,60,60462d2f8138f40887a79fc4,,,,s,1,0.713465,0,91,91,5,1,1,,
,,,,,,,,,,,,,,,,,,,,,,,images/69possible.bmp,images/69possible.bmp,images/69possible.bmp,,,,,,,,,,,,,,,,images/69possible.bmp,,,,,,,,,,s,possible,216,216,144,72,0,288,216,144,72,0,288,216,144,72,0,288,216,216,144,72,0,288,216,144,72,0,288,216,144,72,0,288,603914a2ed55293204edf74e,60464aa8f328310e36e2de68,2021-03-08_16h04.04.417,Impossible2021,2020.1.3,Win32,60,60462d2f8138f40887a79fc4,,,,s,1,1.950435,0,92,92,65,1,3,,
,,,,,,,,,,,,,,,,,,,,,images/24possible.bmp,images/24possible.bmp,,,,,,,,,,,,,,,images/24possible.bmp,,,,,,,,,,,,,,s,possible,0,0,288,216,144,72,0,288,216,144,72,0,288,216,144,72,0,0,288,216,144,72,0,288,216,144,72,0,288,216,144,72,603914a2ed55293204edf74e,60464aa8f328310e36e2de68,2021-03-08_16h04.04.417,Impossible2021,2020.1.3,Win32,60,60462d2f8138f40887a79fc4,,,,s,1,1.11107,0,93,93,28,1,2,,
,,,,,,,,,,,,,,,,,,,,,,,,,,,,,,images/44possible.bmp,images/44possible.bmp,images/44possible.bmp,images/44possible.bmp,images/44possible.bmp,,,,,,,,,,,,,,images/44possible.bmp,,,d,possible,216,216,144,72,0,288,216,144,72,0,288,216,144,72,0,288,144,144,72,0,288,216,144,72,0,288,216,144,72,0,288,216,603914a2ed55293204edf74e,60464aa8f328310e36e2de68,2021-03-08_16h04.04.417,Impossible2021,2020.1.3,Win32,60,60462d2f8138f40887a79fc4,,,,d,1,2.679325,0,94,94,116,1,5,,
,,,,,,,,,,,,,,,,,,,,,,,,,,images/08possible.bmp,images/08possible.bmp,images/08possible.bmp,images/08possible.bmp,,,,,,,,,,,,,,,images/08possible.bmp,,,,,,,s,possible,288,288,216,144,72,0,288,216,144,72,0,288,216,144,72,0,288,288,216,144,72,0,288,216,144,72,0,288,216,144,72,0,603914a2ed55293204edf74e,60464aa8f328310e36e2de68,2021-03-08_16h04.04.417,Impossible2021,2020.1.3,Win32,60,60462d2f8138f40887a79fc4,,,,s,1,1.19586,0,95,95,74,1,4,,
,,,,,,,,,,,,,,,,,,,,,,,,,,,,,,images/44possible.bmp,images/44possible.bmp,images/44possible.bmp,images/44possible.bmp,images/44possible.bmp,,,,,,,,,,,,,,images/44possible.bmp,,,s,possible,216,216,144,72,0,288,216,144,72,0,288,216,144,72,0,288,216,216,144,72,0,288,216,144,72,0,288,216,144,72,0,288,603914a2ed55293204edf74e,60464aa8f328310e36e2de68,2021-03-08_16h04.04.417,Impossible2021,2020.1.3,Win32,60,60462d2f8138f40887a79fc4,,,,s,1,1.03968,0,96,96,110,1,5,,
,,,,,,,,,,,,,,,,,,,,,,,,,,,,,,images/22impossible.bmp,images/22impossible.bmp,images/22impossible.bmp,images/22impossible.bmp,images/22impossible.bmp,,,,,,,,,,,,,,images/22impossible.bmp,,,d,impossible,216,216,144,72,0,288,216,144,72,0,288,216,144,72,0,288,144,144,72,0,288,216,144,72,0,288,216,144,72,0,288,216,603914a2ed55293204edf74e,60464aa8f328310e36e2de68,2021-03-08_16h04.04.417,Impossible2021,2020.1.3,Win32,60,60462d2f8138f40887a79fc4,,,,d,1,1.336105,0,97,97,105,1,5,,
,,,,,,,,,,,,,,,,,,,,images/24impossible.bmp,,,,,,,,,,,,,,,,images/24impossible.bmp,,,,,,,,,,,,,,,s,impossible,0,0,288,216,144,72,0,288,216,144,72,0,288,216,144,72,0,0,288,216,144,72,0,288,216,144,72,0,288,216,144,72,603914a2ed55293204edf74e,60464aa8f328310e36e2de68,2021-03-08_16h04.04.417,Impossible2021,2020.1.3,Win32,60,60462d2f8138f40887a79fc4,,,,s,1,0.88082,0,98,98,4,1,1,,
,,,,,,,,,,,,,,,,,,,,,,,images/08impossible.bmp,images/08impossible.bmp,images/08impossible.bmp,,,,,,,,,,,,,,,images/08impossible.bmp,,,,,,,,,,,s,impossible,288,288,216,144,72,0,288,216,144,72,0,288,216,144,72,0,288,288,216,144,72,0,288,216,144,72,0,288,216,144,72,0,603914a2ed55293204edf74e,60464aa8f328310e36e2de68,2021-03-08_16h04.04.417,Impossible2021,2020.1.3,Win32,60,60462d2f8138f40887a79fc4,,,,s,1,1.862805,0,99,99,50,1,3,,
,,,,,,,,,,,,,,,,,,,,,,,,,,images/25possible.bmp,images/25possible.bmp,images/25possible.bmp,images/25possible.bmp,,,,,,,,,,,,,,,images/25possible.bmp,,,,,,,s,possible,72,72,0,288,216,144,72,0,288,216,144,72,0,288,216,144,72,72,0,288,216,144,72,0,288,216,144,72,0,288,216,144,603914a2ed55293204edf74e,60464aa8f328310e36e2de68,2021-03-08_16h04.04.417,Impossible2021,2020.1.3,Win32,60,60462d2f8138f40887a79fc4,,,,s,1,2.66293,0,100,100,77,1,4,,
,,,,,,,,,,,,,,,,,,,,,,,,,,,,,,images/42possible.bmp,images/42possible.bmp,images/42possible.bmp,images/42possible.bmp,images/42possible.bmp,,,,,,,,,,,,,,,images/42possible.bmp,,d,possible,144,144,72,0,288,216,144,72,0,288,216,144,72,0,288,216,72,72,0,288,216,144,72,0,288,216,144,72,0,288,216,144,603914a2ed55293204edf74e,60464aa8f328310e36e2de68,2021-03-08_16h04.04.417,Impossible2021,2020.1.3,Win32,60,60462d2f8138f40887a79fc4,,,,s,0,1.518535,0,101,101,115,1,5,,
,,,,,,,,,,,,,,,,,,,,,images/25possible.bmp,images/25possible.bmp,,,,,,,,,,,,,,,,images/25possible.bmp,,,,,,,,,,,,,d,possible,72,72,0,288,216,144,72,0,288,216,144,72,0,288,216,144,0,0,288,216,144,72,0,288,216,144,72,0,288,216,144,72,603914a2ed55293204edf74e,60464aa8f328310e36e2de68,2021-03-08_16h04.04.417,Impossible2021,2020.1.3,Win32,60,60462d2f8138f40887a79fc4,,,,d,1,1.620055,0,102,102,35,1,2,,
,,,,,,,,,,,,,,,,,,,,,,,,,,images/24possible.bmp,images/24possible.bmp,images/24possible.bmp,images/24possible.bmp,,,,,,,,,,,,,images/24possible.bmp,,,,,,,,,s,possible,0,0,288,216,144,72,0,288,216,144,72,0,288,216,144,72,0,0,288,216,144,72,0,288,216,144,72,0,288,216,144,72,603914a2ed55293204edf74e,60464aa8f328310e36e2de68,2021-03-08_16h04.04.417,Impossible2021,2020.1.3,Win32,60,60462d2f8138f40887a79fc4,,,,s,1,1.695875,0,103,103,76,1,4,,
,,,,,,,,,,,,,,,,,,,,,,,,,,images/25possible.bmp,images/25possible.bmp,images/25possible.bmp,images/25possible.bmp,,,,,,,,,,,,,,images/25possible.bmp,,,,,,,,d,possible,72,72,0,288,216,144,72,0,288,216,144,72,0,288,216,144,0,0,288,216,144,72,0,288,216,144,72,0,288,216,144,72,603914a2ed55293204edf74e,60464aa8f328310e36e2de68,2021-03-08_16h04.04.417,Impossible2021,2020.1.3,Win32,60,60462d2f8138f40887a79fc4,,,,d,1,1.42895,0,104,104,83,1,4,,
,,,,,,,,,,,,,,,,,,,,,,,,,,,,,,images/38possible.bmp,images/38possible.bmp,images/38possible.bmp,images/38possible.bmp,images/38possible.bmp,,,,,,,,,,,,,,,,images/38possible.bmp,d,possible,72,72,0,288,216,144,72,0,288,216,144,72,0,288,216,144,0,0,288,216,144,72,0,288,216,144,72,0,288,216,144,72,603914a2ed55293204edf74e,60464aa8f328310e36e2de68,2021-03-08_16h04.04.417,Impossible2021,2020.1.3,Win32,60,60462d2f8138f40887a79fc4,,,,d,1,1.64779,0,105,105,114,1,5,,
,,,,,,,,,,,,,,,,,,,,,,,images/69possible.bmp,images/69possible.bmp,images/69possible.bmp,,,,,,,,,,,,,,images/69possible.bmp,,,,,,,,,,,,d,possible,216,216,144,72,0,288,216,144,72,0,288,216,144,72,0,288,144,144,72,0,288,216,144,72,0,288,216,144,72,0,288,216,603914a2ed55293204edf74e,60464aa8f328310e36e2de68,2021-03-08_16h04.04.417,Impossible2021,2020.1.3,Win32,60,60462d2f8138f40887a79fc4,,,,d,1,1.81901,0,106,106,71,1,3,,
,,,,,,,,,,,,,,,,,,,,,,,images/22impossible.bmp,images/22impossible.bmp,images/22impossible.bmp,,,,,,,,,,,,,,,,images/22impossible.bmp,,,,,,,,,,d,impossible,216,216,144,72,0,288,216,144,72,0,288,216,144,72,0,288,144,144,72,0,288,216,144,72,0,288,216,144,72,0,288,216,603914a2ed55293204edf74e,60464aa8f328310e36e2de68,2021-03-08_16h04.04.417,Impossible2021,2020.1.3,Win32,60,60462d2f8138f40887a79fc4,,,,d,1,1.10607,0,107,107,57,1,3,,
,,,,,,,,,,,,,,,,,,,,,,,images/65possible.bmp,images/65possible.bmp,images/65possible.bmp,,,,,,,,,,,,,,,images/65possible.bmp,,,,,,,,,,,s,possible,144,144,72,0,288,216,144,72,0,288,216,144,72,0,288,216,144,144,72,0,288,216,144,72,0,288,216,144,72,0,288,216,603914a2ed55293204edf74e,60464aa8f328310e36e2de68,2021-03-08_16h04.04.417,Impossible2021,2020.1.3,Win32,60,60462d2f8138f40887a79fc4,,,,s,1,1.37949,0,108,108,64,1,3,,
,,,,,,,,,,,,,,,,,,,,,,,,,,,,,,images/05impossible.bmp,images/05impossible.bmp,images/05impossible.bmp,images/05impossible.bmp,images/05impossible.bmp,,,,,,,,,,,,,,images/05impossible.bmp,,,d,impossible,216,216,144,72,0,288,216,144,72,0,288,216,144,72,0,288,144,144,72,0,288,216,144,72,0,288,216,144,72,0,288,216,603914a2ed55293204edf74e,60464aa8f328310e36e2de68,2021-03-08_16h04.04.417,Impossible2021,2020.1.3,Win32,60,60462d2f8138f40887a79fc4,,,,d,1,2.045365,0,109,109,103,1,5,,
,,,,,,,,,,,,,,,,,,,,images/08impossible.bmp,,,,,,,,,,,,,,,,images/08impossible.bmp,,,,,,,,,,,,,,,s,impossible,288,288,216,144,72,0,288,216,144,72,0,288,216,144,72,0,288,288,216,144,72,0,288,216,144,72,0,288,216,144,72,0,603914a2ed55293204edf74e,60464aa8f328310e36e2de68,2021-03-08_16h04.04.417,Impossible2021,2020.1.3,Win32,60,60462d2f8138f40887a79fc4,,,,s,1,0.83051,0,110,110,2,1,1,,
,,,,,,,,,,,,,,,,,,,,,,,,,,,,,,images/25impossible.bmp,images/25impossible.bmp,images/25impossible.bmp,images/25impossible.bmp,images/25impossible.bmp,,,,,,,,,,,,,,,,images/25impossible.bmp,d,impossible,72,72,0,288,216,144,72,0,288,216,144,72,0,288,216,144,0,0,288,216,144,72,0,288,216,144,72,0,288,216,144,72,603914a2ed55293204edf74e,60464aa8f328310e36e2de68,2021-03-08_16h04.04.417,Impossible2021,2020.1.3,Win32,60,60462d2f8138f40887a79fc4,,,,d,1,1.19917,0,111,111,107,1,5,,
,,,,,,,,,,,,,,,,,,,,,images/42impossible.bmp,images/42impossible.bmp,,,,,,,,,,,,,,,,images/42impossible.bmp,,,,,,,,,,,,,s,impossible,144,144,72,0,288,216,144,72,0,288,216,144,72,0,288,216,144,144,72,0,288,216,144,72,0,288,216,144,72,0,288,216,603914a2ed55293204edf74e,60464aa8f328310e36e2de68,2021-03-08_16h04.04.417,Impossible2021,2020.1.3,Win32,60,60462d2f8138f40887a79fc4,,,,s,1,1.473455,0,112,112,37,1,2,,
,,,,,,,,,,,,,,,,,,,,,,,,,,images/55impossible.bmp,images/55impossible.bmp,images/55impossible.bmp,images/55impossible.bmp,,,,,,,,,,,,,,,,images/55impossible.bmp,,,,,,d,impossible,72,72,0,288,216,144,72,0,288,216,144,72,0,288,216,144,0,0,288,216,144,72,0,288,216,144,72,0,288,216,144,72,603914a2ed55293204edf74e,60464aa8f328310e36e2de68,2021-03-08_16h04.04.417,Impossible2021,2020.1.3,Win32,60,60462d2f8138f40887a79fc4,,,,d,1,1.247055,0,113,113,93,1,4,,
,,,,,,,,,,,,,,,,,,,,images/05impossible.bmp,,,,,,,,,,,,,,,,images/05impossible.bmp,,,,,,,,,,,,,,,d,impossible,216,216,144,72,0,288,216,144,72,0,288,216,144,72,0,288,144,144,72,0,288,216,144,72,0,288,216,144,72,0,288,216,603914a2ed55293204edf74e,60464aa8f328310e36e2de68,2021-03-08_16h04.04.417,Impossible2021,2020.1.3,Win32,60,60462d2f8138f40887a79fc4,,,,d,1,0.930195,0,114,114,7,1,1,,
,,,,,,,,,,,,,,,,,,,images/22impossible.bmp,,,,,,,,,,,,,,,,images/22impossible.bmp,,,,,,,,,,,,,,,,d,impossible,216,216,144,72,0,288,216,144,72,0,288,216,144,72,0,288,144,144,72,0,288,216,144,72,0,288,216,144,72,0,288,216,603914a2ed55293204edf74e,60464aa8f328310e36e2de68,2021-03-08_16h04.04.417,Impossible2021,2020.1.3,Win32,60,60462d2f8138f40887a79fc4,,,,d,1,1.551505,0,115,115,9,1,1,,
,,,,,,,,,,,,,,,,,,,images/65possible.bmp,,,,,,,,,,,,,,,,images/65possible.bmp,,,,,,,,,,,,,,,,s,possible,144,144,72,0,288,216,144,72,0,288,216,144,72,0,288,216,144,144,72,0,288,216,144,72,0,288,216,144,72,0,288,216,603914a2ed55293204edf74e,60464aa8f328310e36e2de68,2021-03-08_16h04.04.417,Impossible2021,2020.1.3,Win32,60,60462d2f8138f40887a79fc4,,,,s,1,1.202035,0,116,116,16,1,1,,
,,,,,,,,,,,,,,,,,,,,,,,,,,,,,,images/24impossible.bmp,images/24impossible.bmp,images/24impossible.bmp,images/24impossible.bmp,images/24impossible.bmp,,,,,,,,,,,,,,,,images/24impossible.bmp,d,impossible,0,0,288,216,144,72,0,288,216,144,72,0,288,216,144,72,288,288,216,144,72,0,288,216,144,72,0,288,216,144,72,0,603914a2ed55293204edf74e,60464aa8f328310e36e2de68,2021-03-08_16h04.04.417,Impossible2021,2020.1.3,Win32,60,60462d2f8138f40887a79fc4,,,,s,0,1.371525,0,117,117,106,1,5,,
,,,,,,,,,,,,,,,,,,,,,images/69impossible.bmp,images/69impossible.bmp,,,,,,,,,,,,,,,,images/69impossible.bmp,,,,,,,,,,,,,d,impossible,216,216,144,72,0,288,216,144,72,0,288,216,144,72,0,288,144,144,72,0,288,216,144,72,0,288,216,144,72,0,288,216,603914a2ed55293204edf74e,60464aa8f328310e36e2de68,2021-03-08_16h04.04.417,Impossible2021,2020.1.3,Win32,60,60462d2f8138f40887a79fc4,,,,d,1,1.600125,0,118,118,47,1,2,,
,,,,,,,,,,,,,,,,,,,,,,,,,,,,,,images/08impossible.bmp,images/08impossible.bmp,images/08impossible.bmp,images/08impossible.bmp,images/08impossible.bmp,,,,,,,,,,,,,images/08impossible.bmp,,,,d,impossible,288,288,216,144,72,0,288,216,144,72,0,288,216,144,72,0,216,216,144,72,0,288,216,144,72,0,288,216,144,72,0,288,603914a2ed55293204edf74e,60464aa8f328310e36e2de68,2021-03-08_16h04.04.417,Impossible2021,2020.1.3,Win32,60,60462d2f8138f40887a79fc4,,,,d,1,3.31286,0,119,119,104,1,5,,
,,,,,,,,,,,,,,,,,,,,,,,,,,,,,,,,,,,,,,,,,,,,,,,,,,,,,,,,,,,,,,,,,,,,,,,,,,,,,,,,,,,,,603914a2ed55293204edf74e,60464aa8f328310e36e2de68,2021-03-08_16h04.04.417,Impossible2021,2020.1.3,Win32,60,60462d2f8138f40887a79fc4,,,,,,,,,,,,,k,7.925765
