consent_key.keys,consent_key.rt,intro_key_2.keys,intro_key_2.rt,key_resp_4.keys,key_resp_4.rt,key_resp_5.keys,key_resp_5.rt,key_resp_6.keys,key_resp_6.rt,key_resp_7.keys,key_resp_7.rt,keyTraining.keys,keyTraining.corr,keyTraining.rt,practiceloop.thisRepN,practiceloop.thisTrialN,practiceloop.thisN,practiceloop.thisIndex,practiceloop.ran,s11,s1_1,s12,s22,s13,s23,s33,s14,s24,s34,s44,s15,s25,s35,s45,s55,t11,t1_1,t12,t22,t13,t23,t33,t14,t24,t34,t44,t15,t25,t35,t45,t55,corrans,study,o11,o1_1,o12,o22,o13,o23,o33,o14,o24,o34,o44,o15,o25,o35,o45,o55,ot11,ot1_1,ot12,ot22,ot13,ot23,ot33,ot14,ot24,ot34,ot44,ot15,ot25,ot35,ot45,ot55,participant,session,date,expName,psychopyVersion,OS,frameRate,STUDY_ID,key_resp_2.keys,key_resp_2.rt,key_resp.keys,key_resp.corr,key_resp.rt,testloop.thisRepN,testloop.thisTrialN,testloop.thisN,testloop.thisIndex,testloop.ran,setsize,key_resp_3.keys,key_resp_3.rt
y,33.975575,space,22.88841,space,2.999475,s,3.38289,d,5.435785,space,7.0825,s,1,1.01174,0,0,0,0,1,images/06impossible.bmp,,,,,,,,,,,,,,,,images/06impossible.bmp,,,,,,,,,,,,,,,,s,,0,0,288,216,144,72,0,288,216,144,72,0,288,216,144,72,0,0,288,216,144,72,0,288,216,144,72,0,288,216,144,72,603be4b0babbb59215931fe0,60464aa65d45c60e29c120ce,2021-03-08_16h02.58.951,Impossible2021,2020.1.3,Win32,60,60462d2f8138f40887a79fc4,,,,,,,,,,,,,
,,,,,,,,,,,,d,1,1.01591,0,1,1,1,1,,images/06impossible.bmp,,,,,,,,,,,,,,,,images/06impossible.bmp,,,,,,,,,,,,,,,d,,216,216,144,72,0,288,216,144,72,0,288,216,144,72,0,288,144,144,72,0,288,216,144,72,0,288,216,144,72,0,288,216,603be4b0babbb59215931fe0,60464aa65d45c60e29c120ce,2021-03-08_16h02.58.951,Impossible2021,2020.1.3,Win32,60,60462d2f8138f40887a79fc4,,,,,,,,,,,,,
,,,,,,,,,,,,s,1,1.57996,0,2,2,2,1,,,images/06impossible.bmp,images/06impossible.bmp,,,,,,,,,,,,,,,,images/06impossible.bmp,,,,,,,,,,,,,s,,288,288,216,144,72,0,288,216,144,72,0,288,216,144,72,0,288,288,216,144,72,0,288,216,144,72,0,288,216,144,72,0,603be4b0babbb59215931fe0,60464aa65d45c60e29c120ce,2021-03-08_16h02.58.951,Impossible2021,2020.1.3,Win32,60,60462d2f8138f40887a79fc4,,,,,,,,,,,,,
,,,,,,,,,,,,s,0,1.046,0,3,3,3,1,,,images/06impossible.bmp,images/06impossible.bmp,,,,,,,,,,,,,,,images/06impossible.bmp,,,,,,,,,,,,,,d,,144,144,72,0,288,216,144,72,0,288,216,144,72,0,288,216,72,72,0,288,216,144,72,0,288,216,144,72,0,288,216,144,603be4b0babbb59215931fe0,60464aa65d45c60e29c120ce,2021-03-08_16h02.58.951,Impossible2021,2020.1.3,Win32,60,60462d2f8138f40887a79fc4,,,,,,,,,,,,,
,,,,,,,,,,,,s,1,1.09469,0,4,4,4,1,,,,,images/06impossible.bmp,images/06impossible.bmp,images/06impossible.bmp,,,,,,,,,,,,,,images/06impossible.bmp,,,,,,,,,,,,s,,216,216,144,72,0,288,216,144,72,0,288,216,144,72,0,288,216,216,144,72,0,288,216,144,72,0,288,216,144,72,0,288,603be4b0babbb59215931fe0,60464aa65d45c60e29c120ce,2021-03-08_16h02.58.951,Impossible2021,2020.1.3,Win32,60,60462d2f8138f40887a79fc4,,,,,,,,,,,,,
,,,,,,,,,,,,d,1,1.004935,0,5,5,5,1,,,,,images/06impossible.bmp,images/06impossible.bmp,images/06impossible.bmp,,,,,,,,,,,,,,,,images/06impossible.bmp,,,,,,,,,,d,,216,216,144,72,0,288,216,144,72,0,288,216,144,72,0,288,144,144,72,0,288,216,144,72,0,288,216,144,72,0,288,216,603be4b0babbb59215931fe0,60464aa65d45c60e29c120ce,2021-03-08_16h02.58.951,Impossible2021,2020.1.3,Win32,60,60462d2f8138f40887a79fc4,,,,,,,,,,,,,
,,,,,,,,,,,,,,,,,,,,,,,,,,,images/42impossible.bmp,images/42impossible.bmp,images/42impossible.bmp,images/42impossible.bmp,,,,,,,,,,,,,,,,images/42impossible.bmp,,,,,,d,impossible,144,144,72,0,288,216,144,72,0,288,216,144,72,0,288,216,72,72,0,288,216,144,72,0,288,216,144,72,0,288,216,144,603be4b0babbb59215931fe0,60464aa65d45c60e29c120ce,2021-03-08_16h02.58.951,Impossible2021,2020.1.3,Win32,60,60462d2f8138f40887a79fc4,space,1.52349,d,1,0.893205,0,0,0,91,1,4,,
,,,,,,,,,,,,,,,,,,,,,,,,,,,,,,,images/22impossible.bmp,images/22impossible.bmp,images/22impossible.bmp,images/22impossible.bmp,images/22impossible.bmp,,,,,,,,,,,,,,images/22impossible.bmp,,,d,impossible,216,216,144,72,0,288,216,144,72,0,288,216,144,72,0,288,144,144,72,0,288,216,144,72,0,288,216,144,72,0,288,216,603be4b0babbb59215931fe0,60464aa65d45c60e29c120ce,2021-03-08_16h02.58.951,Impossible2021,2020.1.3,Win32,60,60462d2f8138f40887a79fc4,,,s,0,0.875795,0,1,1,105,1,5,,
,,,,,,,,,,,,,,,,,,,,,,,,images/38possible.bmp,images/38possible.bmp,images/38possible.bmp,,,,,,,,,,,,,,,images/38possible.bmp,,,,,,,,,,,s,possible,72,72,0,288,216,144,72,0,288,216,144,72,0,288,216,144,72,72,0,288,216,144,72,0,288,216,144,72,0,288,216,144,603be4b0babbb59215931fe0,60464aa65d45c60e29c120ce,2021-03-08_16h02.58.951,Impossible2021,2020.1.3,Win32,60,60462d2f8138f40887a79fc4,,,s,1,1.001415,0,2,2,60,1,3,,
,,,,,,,,,,,,,,,,,,,,,,,,,,,,,,,images/05impossible.bmp,images/05impossible.bmp,images/05impossible.bmp,images/05impossible.bmp,images/05impossible.bmp,,,,,,,,,,,,,,,images/05impossible.bmp,,s,impossible,216,216,144,72,0,288,216,144,72,0,288,216,144,72,0,288,216,216,144,72,0,288,216,144,72,0,288,216,144,72,0,288,603be4b0babbb59215931fe0,60464aa65d45c60e29c120ce,2021-03-08_16h02.58.951,Impossible2021,2020.1.3,Win32,60,60462d2f8138f40887a79fc4,,,d,0,0.90047,0,3,3,97,1,5,,
,,,,,,,,,,,,,,,,,,,,,,,,images/08impossible.bmp,images/08impossible.bmp,images/08impossible.bmp,,,,,,,,,,,,,,,images/08impossible.bmp,,,,,,,,,,,d,impossible,288,288,216,144,72,0,288,216,144,72,0,288,216,144,72,0,216,216,144,72,0,288,216,144,72,0,288,216,144,72,0,288,603be4b0babbb59215931fe0,60464aa65d45c60e29c120ce,2021-03-08_16h02.58.951,Impossible2021,2020.1.3,Win32,60,60462d2f8138f40887a79fc4,,,s,0,1.99497,0,4,4,56,1,3,,
,,,,,,,,,,,,,,,,,,,,,,,,,,,,,,,images/38possible.bmp,images/38possible.bmp,images/38possible.bmp,images/38possible.bmp,images/38possible.bmp,,,,,,,,,,,,images/38possible.bmp,,,,,s,possible,72,72,0,288,216,144,72,0,288,216,144,72,0,288,216,144,72,72,0,288,216,144,72,0,288,216,144,72,0,288,216,144,603be4b0babbb59215931fe0,60464aa65d45c60e29c120ce,2021-03-08_16h02.58.951,Impossible2021,2020.1.3,Win32,60,60462d2f8138f40887a79fc4,,,s,1,0.926945,0,5,5,108,1,5,,
,,,,,,,,,,,,,,,,,,,,images/42possible.bmp,,,,,,,,,,,,,,,,images/42possible.bmp,,,,,,,,,,,,,,,,d,possible,144,144,72,0,288,216,144,72,0,288,216,144,72,0,288,216,72,72,0,288,216,144,72,0,288,216,144,72,0,288,216,144,603be4b0babbb59215931fe0,60464aa65d45c60e29c120ce,2021-03-08_16h02.58.951,Impossible2021,2020.1.3,Win32,60,60462d2f8138f40887a79fc4,,,d,1,0.748555,0,6,6,19,1,1,,
,,,,,,,,,,,,,,,,,,,,images/55possible.bmp,,,,,,,,,,,,,,,,images/55possible.bmp,,,,,,,,,,,,,,,,d,possible,72,72,0,288,216,144,72,0,288,216,144,72,0,288,216,144,0,0,288,216,144,72,0,288,216,144,72,0,288,216,144,72,603be4b0babbb59215931fe0,60464aa65d45c60e29c120ce,2021-03-08_16h02.58.951,Impossible2021,2020.1.3,Win32,60,60462d2f8138f40887a79fc4,,,d,1,0.659795,0,7,7,21,1,1,,
,,,,,,,,,,,,,,,,,,,,images/44possible.bmp,,,,,,,,,,,,,,,,images/44possible.bmp,,,,,,,,,,,,,,,,s,possible,216,216,144,72,0,288,216,144,72,0,288,216,144,72,0,288,216,216,144,72,0,288,216,144,72,0,288,216,144,72,0,288,603be4b0babbb59215931fe0,60464aa65d45c60e29c120ce,2021-03-08_16h02.58.951,Impossible2021,2020.1.3,Win32,60,60462d2f8138f40887a79fc4,,,d,0,0.609265,0,8,8,14,1,1,,
,,,,,,,,,,,,,,,,,,,,,,,,,,,images/03possible.bmp,images/03possible.bmp,images/03possible.bmp,images/03possible.bmp,,,,,,,,,,,,,,images/03possible.bmp,,,,,,,,s,possible,72,72,0,288,216,144,72,0,288,216,144,72,0,288,216,144,72,72,0,288,216,144,72,0,288,216,144,72,0,288,216,144,603be4b0babbb59215931fe0,60464aa65d45c60e29c120ce,2021-03-08_16h02.58.951,Impossible2021,2020.1.3,Win32,60,60462d2f8138f40887a79fc4,,,s,1,1.010855,0,9,9,72,1,4,,
,,,,,,,,,,,,,,,,,,,,,,,,,,,,,,,images/03impossible.bmp,images/03impossible.bmp,images/03impossible.bmp,images/03impossible.bmp,images/03impossible.bmp,,,,,,,,,,,,,images/03impossible.bmp,,,,s,impossible,72,72,0,288,216,144,72,0,288,216,144,72,0,288,216,144,72,72,0,288,216,144,72,0,288,216,144,72,0,288,216,144,603be4b0babbb59215931fe0,60464aa65d45c60e29c120ce,2021-03-08_16h02.58.951,Impossible2021,2020.1.3,Win32,60,60462d2f8138f40887a79fc4,,,d,0,1.248345,0,10,10,96,1,5,,
,,,,,,,,,,,,,,,,,,,,,,,,images/55possible.bmp,images/55possible.bmp,images/55possible.bmp,,,,,,,,,,,,,,images/55possible.bmp,,,,,,,,,,,,s,possible,72,72,0,288,216,144,72,0,288,216,144,72,0,288,216,144,72,72,0,288,216,144,72,0,288,216,144,72,0,288,216,144,603be4b0babbb59215931fe0,60464aa65d45c60e29c120ce,2021-03-08_16h02.58.951,Impossible2021,2020.1.3,Win32,60,60462d2f8138f40887a79fc4,,,s,1,1.043585,0,11,11,63,1,3,,
,,,,,,,,,,,,,,,,,,,,images/03impossible.bmp,,,,,,,,,,,,,,,,images/03impossible.bmp,,,,,,,,,,,,,,,,s,impossible,72,72,0,288,216,144,72,0,288,216,144,72,0,288,216,144,72,72,0,288,216,144,72,0,288,216,144,72,0,288,216,144,603be4b0babbb59215931fe0,60464aa65d45c60e29c120ce,2021-03-08_16h02.58.951,Impossible2021,2020.1.3,Win32,60,60462d2f8138f40887a79fc4,,,s,1,0.68519,0,12,12,0,1,1,,
,,,,,,,,,,,,,,,,,,,,images/24impossible.bmp,,,,,,,,,,,,,,,,images/24impossible.bmp,,,,,,,,,,,,,,,,d,impossible,0,0,288,216,144,72,0,288,216,144,72,0,288,216,144,72,288,288,216,144,72,0,288,216,144,72,0,288,216,144,72,0,603be4b0babbb59215931fe0,60464aa65d45c60e29c120ce,2021-03-08_16h02.58.951,Impossible2021,2020.1.3,Win32,60,60462d2f8138f40887a79fc4,,,d,1,0.86629,0,13,13,10,1,1,,
,,,,,,,,,,,,,,,,,,,,,,,,,,,images/44impossible.bmp,images/44impossible.bmp,images/44impossible.bmp,images/44impossible.bmp,,,,,,,,,,,,,images/44impossible.bmp,,,,,,,,,d,impossible,216,216,144,72,0,288,216,144,72,0,288,216,144,72,0,288,144,144,72,0,288,216,144,72,0,288,216,144,72,0,288,216,603be4b0babbb59215931fe0,60464aa65d45c60e29c120ce,2021-03-08_16h02.58.951,Impossible2021,2020.1.3,Win32,60,60462d2f8138f40887a79fc4,,,s,0,1.436545,0,14,14,92,1,4,,
,,,,,,,,,,,,,,,,,,,,,,,,,,,images/25possible.bmp,images/25possible.bmp,images/25possible.bmp,images/25possible.bmp,,,,,,,,,,,,,,,images/25possible.bmp,,,,,,,s,possible,72,72,0,288,216,144,72,0,288,216,144,72,0,288,216,144,72,72,0,288,216,144,72,0,288,216,144,72,0,288,216,144,603be4b0babbb59215931fe0,60464aa65d45c60e29c120ce,2021-03-08_16h02.58.951,Impossible2021,2020.1.3,Win32,60,60462d2f8138f40887a79fc4,,,s,1,0.92623,0,15,15,77,1,4,,
,,,,,,,,,,,,,,,,,,,,,,,,images/05impossible.bmp,images/05impossible.bmp,images/05impossible.bmp,,,,,,,,,,,,,,,,images/05impossible.bmp,,,,,,,,,,d,impossible,216,216,144,72,0,288,216,144,72,0,288,216,144,72,0,288,144,144,72,0,288,216,144,72,0,288,216,144,72,0,288,216,603be4b0babbb59215931fe0,60464aa65d45c60e29c120ce,2021-03-08_16h02.58.951,Impossible2021,2020.1.3,Win32,60,60462d2f8138f40887a79fc4,,,d,1,0.831905,0,16,16,55,1,3,,
,,,,,,,,,,,,,,,,,,,,,,,,,,,,,,,images/55possible.bmp,images/55possible.bmp,images/55possible.bmp,images/55possible.bmp,images/55possible.bmp,,,,,,,,,,,,,,,,images/55possible.bmp,s,possible,72,72,0,288,216,144,72,0,288,216,144,72,0,288,216,144,72,72,0,288,216,144,72,0,288,216,144,72,0,288,216,144,603be4b0babbb59215931fe0,60464aa65d45c60e29c120ce,2021-03-08_16h02.58.951,Impossible2021,2020.1.3,Win32,60,60462d2f8138f40887a79fc4,,,d,0,1.33049,0,17,17,111,1,5,,
,,,,,,,,,,,,,,,,,,,,,,,,,,,,,,,images/08impossible.bmp,images/08impossible.bmp,images/08impossible.bmp,images/08impossible.bmp,images/08impossible.bmp,,,,,,,,,,,,,,,,images/08impossible.bmp,s,impossible,288,288,216,144,72,0,288,216,144,72,0,288,216,144,72,0,288,288,216,144,72,0,288,216,144,72,0,288,216,144,72,0,603be4b0babbb59215931fe0,60464aa65d45c60e29c120ce,2021-03-08_16h02.58.951,Impossible2021,2020.1.3,Win32,60,60462d2f8138f40887a79fc4,,,s,1,1.38398,0,18,18,98,1,5,,
,,,,,,,,,,,,,,,,,,,,,images/38possible.bmp,,,,,,,,,,,,,,,,images/38possible.bmp,,,,,,,,,,,,,,,d,possible,72,72,0,288,216,144,72,0,288,216,144,72,0,288,216,144,0,0,288,216,144,72,0,288,216,144,72,0,288,216,144,72,603be4b0babbb59215931fe0,60464aa65d45c60e29c120ce,2021-03-08_16h02.58.951,Impossible2021,2020.1.3,Win32,60,60462d2f8138f40887a79fc4,,,d,1,0.66934,0,19,19,18,1,1,,
,,,,,,,,,,,,,,,,,,,,,images/55possible.bmp,,,,,,,,,,,,,,,,images/55possible.bmp,,,,,,,,,,,,,,,s,possible,72,72,0,288,216,144,72,0,288,216,144,72,0,288,216,144,72,72,0,288,216,144,72,0,288,216,144,72,0,288,216,144,603be4b0babbb59215931fe0,60464aa65d45c60e29c120ce,2021-03-08_16h02.58.951,Impossible2021,2020.1.3,Win32,60,60462d2f8138f40887a79fc4,,,s,1,0.479425,0,20,20,15,1,1,,
,,,,,,,,,,,,,,,,,,,,,images/69possible.bmp,,,,,,,,,,,,,,,,images/69possible.bmp,,,,,,,,,,,,,,,s,possible,216,216,144,72,0,288,216,144,72,0,288,216,144,72,0,288,216,216,144,72,0,288,216,144,72,0,288,216,144,72,0,288,603be4b0babbb59215931fe0,60464aa65d45c60e29c120ce,2021-03-08_16h02.58.951,Impossible2021,2020.1.3,Win32,60,60462d2f8138f40887a79fc4,,,s,1,0.52698,0,21,21,17,1,1,,
,,,,,,,,,,,,,,,,,,,,images/22impossible.bmp,,,,,,,,,,,,,,,,images/22impossible.bmp,,,,,,,,,,,,,,,,d,impossible,216,216,144,72,0,288,216,144,72,0,288,216,144,72,0,288,144,144,72,0,288,216,144,72,0,288,216,144,72,0,288,216,603be4b0babbb59215931fe0,60464aa65d45c60e29c120ce,2021-03-08_16h02.58.951,Impossible2021,2020.1.3,Win32,60,60462d2f8138f40887a79fc4,,,d,1,0.612755,0,22,22,9,1,1,,
,,,,,,,,,,,,,,,,,,,,,,,,images/03impossible.bmp,images/03impossible.bmp,images/03impossible.bmp,,,,,,,,,,,,,,,images/03impossible.bmp,,,,,,,,,,,d,impossible,72,72,0,288,216,144,72,0,288,216,144,72,0,288,216,144,0,0,288,216,144,72,0,288,216,144,72,0,288,216,144,72,603be4b0babbb59215931fe0,60464aa65d45c60e29c120ce,2021-03-08_16h02.58.951,Impossible2021,2020.1.3,Win32,60,60462d2f8138f40887a79fc4,,,d,1,1.334255,0,23,23,54,1,3,,
,,,,,,,,,,,,,,,,,,,,,,,,images/69possible.bmp,images/69possible.bmp,images/69possible.bmp,,,,,,,,,,,,,,,,images/69possible.bmp,,,,,,,,,,s,possible,216,216,144,72,0,288,216,144,72,0,288,216,144,72,0,288,216,216,144,72,0,288,216,144,72,0,288,216,144,72,0,288,603be4b0babbb59215931fe0,60464aa65d45c60e29c120ce,2021-03-08_16h02.58.951,Impossible2021,2020.1.3,Win32,60,60462d2f8138f40887a79fc4,,,s,1,1.19866,0,24,24,65,1,3,,
,,,,,,,,,,,,,,,,,,,,,,,,images/22impossible.bmp,images/22impossible.bmp,images/22impossible.bmp,,,,,,,,,,,,,,,,images/22impossible.bmp,,,,,,,,,,d,impossible,216,216,144,72,0,288,216,144,72,0,288,216,144,72,0,288,144,144,72,0,288,216,144,72,0,288,216,144,72,0,288,216,603be4b0babbb59215931fe0,60464aa65d45c60e29c120ce,2021-03-08_16h02.58.951,Impossible2021,2020.1.3,Win32,60,60462d2f8138f40887a79fc4,,,d,1,1.550605,0,25,25,57,1,3,,
,,,,,,,,,,,,,,,,,,,,,images/25impossible.bmp,,,,,,,,,,,,,,,,images/25impossible.bmp,,,,,,,,,,,,,,,d,impossible,72,72,0,288,216,144,72,0,288,216,144,72,0,288,216,144,0,0,288,216,144,72,0,288,216,144,72,0,288,216,144,72,603be4b0babbb59215931fe0,60464aa65d45c60e29c120ce,2021-03-08_16h02.58.951,Impossible2021,2020.1.3,Win32,60,60462d2f8138f40887a79fc4,,,d,1,0.888345,0,26,26,11,1,1,,
,,,,,,,,,,,,,,,,,,,,,,,,,,,images/55impossible.bmp,images/55impossible.bmp,images/55impossible.bmp,images/55impossible.bmp,,,,,,,,,,,,,,images/55impossible.bmp,,,,,,,,s,impossible,72,72,0,288,216,144,72,0,288,216,144,72,0,288,216,144,72,72,0,288,216,144,72,0,288,216,144,72,0,288,216,144,603be4b0babbb59215931fe0,60464aa65d45c60e29c120ce,2021-03-08_16h02.58.951,Impossible2021,2020.1.3,Win32,60,60462d2f8138f40887a79fc4,,,s,1,1.144945,0,27,27,87,1,4,,
,,,,,,,,,,,,,,,,,,,,,,,,,,,images/05possible.bmp,images/05possible.bmp,images/05possible.bmp,images/05possible.bmp,,,,,,,,,,,,,,,,images/05possible.bmp,,,,,,s,possible,216,216,144,72,0,288,216,144,72,0,288,216,144,72,0,288,216,216,144,72,0,288,216,144,72,0,288,216,144,72,0,288,603be4b0babbb59215931fe0,60464aa65d45c60e29c120ce,2021-03-08_16h02.58.951,Impossible2021,2020.1.3,Win32,60,60462d2f8138f40887a79fc4,,,s,1,1.25938,0,28,28,73,1,4,,
,,,,,,,,,,,,,,,,,,,,,,images/38impossible.bmp,images/38impossible.bmp,,,,,,,,,,,,,,,images/38impossible.bmp,,,,,,,,,,,,,,d,impossible,72,72,0,288,216,144,72,0,288,216,144,72,0,288,216,144,0,0,288,216,144,72,0,288,216,144,72,0,288,216,144,72,603be4b0babbb59215931fe0,60464aa65d45c60e29c120ce,2021-03-08_16h02.58.951,Impossible2021,2020.1.3,Win32,60,60462d2f8138f40887a79fc4,,,d,1,1.3759,0,29,29,42,1,2,,
,,,,,,,,,,,,,,,,,,,,,,images/65impossible.bmp,images/65impossible.bmp,,,,,,,,,,,,,,,images/65impossible.bmp,,,,,,,,,,,,,,d,impossible,144,144,72,0,288,216,144,72,0,288,216,144,72,0,288,216,72,72,0,288,216,144,72,0,288,216,144,72,0,288,216,144,603be4b0babbb59215931fe0,60464aa65d45c60e29c120ce,2021-03-08_16h02.58.951,Impossible2021,2020.1.3,Win32,60,60462d2f8138f40887a79fc4,,,d,1,0.96046,0,30,30,46,1,2,,
,,,,,,,,,,,,,,,,,,,,,,,,,,,,,,,images/69possible.bmp,images/69possible.bmp,images/69possible.bmp,images/69possible.bmp,images/69possible.bmp,,,,,,,,,,,,,,images/69possible.bmp,,,d,possible,216,216,144,72,0,288,216,144,72,0,288,216,144,72,0,288,144,144,72,0,288,216,144,72,0,288,216,144,72,0,288,216,603be4b0babbb59215931fe0,60464aa65d45c60e29c120ce,2021-03-08_16h02.58.951,Impossible2021,2020.1.3,Win32,60,60462d2f8138f40887a79fc4,,,d,1,0.876585,0,31,31,119,1,5,,
,,,,,,,,,,,,,,,,,,,,images/69possible.bmp,,,,,,,,,,,,,,,,images/69possible.bmp,,,,,,,,,,,,,,,,d,possible,216,216,144,72,0,288,216,144,72,0,288,216,144,72,0,288,144,144,72,0,288,216,144,72,0,288,216,144,72,0,288,216,603be4b0babbb59215931fe0,60464aa65d45c60e29c120ce,2021-03-08_16h02.58.951,Impossible2021,2020.1.3,Win32,60,60462d2f8138f40887a79fc4,,,d,1,0.662465,0,32,32,23,1,1,,
,,,,,,,,,,,,,,,,,,,,images/25impossible.bmp,,,,,,,,,,,,,,,,images/25impossible.bmp,,,,,,,,,,,,,,,,s,impossible,72,72,0,288,216,144,72,0,288,216,144,72,0,288,216,144,72,72,0,288,216,144,72,0,288,216,144,72,0,288,216,144,603be4b0babbb59215931fe0,60464aa65d45c60e29c120ce,2021-03-08_16h02.58.951,Impossible2021,2020.1.3,Win32,60,60462d2f8138f40887a79fc4,,,s,1,0.544045,0,33,33,5,1,1,,
,,,,,,,,,,,,,,,,,,,,,,,,images/44possible.bmp,images/44possible.bmp,images/44possible.bmp,,,,,,,,,,,,,,,,images/44possible.bmp,,,,,,,,,,s,possible,216,216,144,72,0,288,216,144,72,0,288,216,144,72,0,288,216,216,144,72,0,288,216,144,72,0,288,216,144,72,0,288,603be4b0babbb59215931fe0,60464aa65d45c60e29c120ce,2021-03-08_16h02.58.951,Impossible2021,2020.1.3,Win32,60,60462d2f8138f40887a79fc4,,,s,1,1.345415,0,34,34,62,1,3,,
,,,,,,,,,,,,,,,,,,,,,,,,,,,images/69impossible.bmp,images/69impossible.bmp,images/69impossible.bmp,images/69impossible.bmp,,,,,,,,,,,,,,images/69impossible.bmp,,,,,,,,d,impossible,216,216,144,72,0,288,216,144,72,0,288,216,144,72,0,288,144,144,72,0,288,216,144,72,0,288,216,144,72,0,288,216,603be4b0babbb59215931fe0,60464aa65d45c60e29c120ce,2021-03-08_16h02.58.951,Impossible2021,2020.1.3,Win32,60,60462d2f8138f40887a79fc4,,,d,1,0.911095,0,35,35,95,1,4,,
,,,,,,,,,,,,,,,,,,,,,,,,,,,,,,,images/24impossible.bmp,images/24impossible.bmp,images/24impossible.bmp,images/24impossible.bmp,images/24impossible.bmp,,,,,,,,,,,,,,,,images/24impossible.bmp,d,impossible,0,0,288,216,144,72,0,288,216,144,72,0,288,216,144,72,288,288,216,144,72,0,288,216,144,72,0,288,216,144,72,0,603be4b0babbb59215931fe0,60464aa65d45c60e29c120ce,2021-03-08_16h02.58.951,Impossible2021,2020.1.3,Win32,60,60462d2f8138f40887a79fc4,,,s,0,0.999965,0,36,36,106,1,5,,
,,,,,,,,,,,,,,,,,,,,,,,,,,,images/65impossible.bmp,images/65impossible.bmp,images/65impossible.bmp,images/65impossible.bmp,,,,,,,,,,,,,,,images/65impossible.bmp,,,,,,,s,impossible,144,144,72,0,288,216,144,72,0,288,216,144,72,0,288,216,144,144,72,0,288,216,144,72,0,288,216,144,72,0,288,216,603be4b0babbb59215931fe0,60464aa65d45c60e29c120ce,2021-03-08_16h02.58.951,Impossible2021,2020.1.3,Win32,60,60462d2f8138f40887a79fc4,,,s,1,1.025545,0,37,37,88,1,4,,
,,,,,,,,,,,,,,,,,,,,,,images/03possible.bmp,images/03possible.bmp,,,,,,,,,,,,,,,images/03possible.bmp,,,,,,,,,,,,,,s,possible,72,72,0,288,216,144,72,0,288,216,144,72,0,288,216,144,72,72,0,288,216,144,72,0,288,216,144,72,0,288,216,144,603be4b0babbb59215931fe0,60464aa65d45c60e29c120ce,2021-03-08_16h02.58.951,Impossible2021,2020.1.3,Win32,60,60462d2f8138f40887a79fc4,,,s,1,0.80993,0,38,38,24,1,2,,
,,,,,,,,,,,,,,,,,,,,,,images/44impossible.bmp,images/44impossible.bmp,,,,,,,,,,,,,,,images/44impossible.bmp,,,,,,,,,,,,,,d,impossible,216,216,144,72,0,288,216,144,72,0,288,216,144,72,0,288,144,144,72,0,288,216,144,72,0,288,216,144,72,0,288,216,603be4b0babbb59215931fe0,60464aa65d45c60e29c120ce,2021-03-08_16h02.58.951,Impossible2021,2020.1.3,Win32,60,60462d2f8138f40887a79fc4,,,d,1,0.951645,0,39,39,44,1,2,,
,,,,,,,,,,,,,,,,,,,,,,,,images/08impossible.bmp,images/08impossible.bmp,images/08impossible.bmp,,,,,,,,,,,,,,,images/08impossible.bmp,,,,,,,,,,,s,impossible,288,288,216,144,72,0,288,216,144,72,0,288,216,144,72,0,288,288,216,144,72,0,288,216,144,72,0,288,216,144,72,0,603be4b0babbb59215931fe0,60464aa65d45c60e29c120ce,2021-03-08_16h02.58.951,Impossible2021,2020.1.3,Win32,60,60462d2f8138f40887a79fc4,,,s,1,1.593995,0,40,40,50,1,3,,
,,,,,,,,,,,,,,,,,,,,,,images/38impossible.bmp,images/38impossible.bmp,,,,,,,,,,,,,,,images/38impossible.bmp,,,,,,,,,,,,,,s,impossible,72,72,0,288,216,144,72,0,288,216,144,72,0,288,216,144,72,72,0,288,216,144,72,0,288,216,144,72,0,288,216,144,603be4b0babbb59215931fe0,60464aa65d45c60e29c120ce,2021-03-08_16h02.58.951,Impossible2021,2020.1.3,Win32,60,60462d2f8138f40887a79fc4,,,s,1,0.96244,0,41,41,36,1,2,,
,,,,,,,,,,,,,,,,,,,,,,,,,,,images/03possible.bmp,images/03possible.bmp,images/03possible.bmp,images/03possible.bmp,,,,,,,,,,,,,,,,images/03possible.bmp,,,,,,d,possible,72,72,0,288,216,144,72,0,288,216,144,72,0,288,216,144,0,0,288,216,144,72,0,288,216,144,72,0,288,216,144,72,603be4b0babbb59215931fe0,60464aa65d45c60e29c120ce,2021-03-08_16h02.58.951,Impossible2021,2020.1.3,Win32,60,60462d2f8138f40887a79fc4,,,s,0,1.4327,0,42,42,78,1,4,,
,,,,,,,,,,,,,,,,,,,,,,,,,,,images/24possible.bmp,images/24possible.bmp,images/24possible.bmp,images/24possible.bmp,,,,,,,,,,,,,images/24possible.bmp,,,,,,,,,s,possible,0,0,288,216,144,72,0,288,216,144,72,0,288,216,144,72,0,0,288,216,144,72,0,288,216,144,72,0,288,216,144,72,603be4b0babbb59215931fe0,60464aa65d45c60e29c120ce,2021-03-08_16h02.58.951,Impossible2021,2020.1.3,Win32,60,60462d2f8138f40887a79fc4,,,d,0,0.89813,0,43,43,76,1,4,,
,,,,,,,,,,,,,,,,,,,,,,,,images/24impossible.bmp,images/24impossible.bmp,images/24impossible.bmp,,,,,,,,,,,,,,,images/24impossible.bmp,,,,,,,,,,,s,impossible,0,0,288,216,144,72,0,288,216,144,72,0,288,216,144,72,0,0,288,216,144,72,0,288,216,144,72,0,288,216,144,72,603be4b0babbb59215931fe0,60464aa65d45c60e29c120ce,2021-03-08_16h02.58.951,Impossible2021,2020.1.3,Win32,60,60462d2f8138f40887a79fc4,,,s,1,0.948725,0,44,44,52,1,3,,
,,,,,,,,,,,,,,,,,,,,,,,,,,,,,,,images/55possible.bmp,images/55possible.bmp,images/55possible.bmp,images/55possible.bmp,images/55possible.bmp,,,,,,,,,,,,images/55possible.bmp,,,,,d,possible,72,72,0,288,216,144,72,0,288,216,144,72,0,288,216,144,0,0,288,216,144,72,0,288,216,144,72,0,288,216,144,72,603be4b0babbb59215931fe0,60464aa65d45c60e29c120ce,2021-03-08_16h02.58.951,Impossible2021,2020.1.3,Win32,60,60462d2f8138f40887a79fc4,,,d,1,1.1796,0,45,45,117,1,5,,
,,,,,,,,,,,,,,,,,,,,,,images/24possible.bmp,images/24possible.bmp,,,,,,,,,,,,,,,images/24possible.bmp,,,,,,,,,,,,,,s,possible,0,0,288,216,144,72,0,288,216,144,72,0,288,216,144,72,0,0,288,216,144,72,0,288,216,144,72,0,288,216,144,72,603be4b0babbb59215931fe0,60464aa65d45c60e29c120ce,2021-03-08_16h02.58.951,Impossible2021,2020.1.3,Win32,60,60462d2f8138f40887a79fc4,,,s,1,0.511055,0,46,46,28,1,2,,
,,,,,,,,,,,,,,,,,,,,,images/44possible.bmp,,,,,,,,,,,,,,,,images/44possible.bmp,,,,,,,,,,,,,,,d,possible,216,216,144,72,0,288,216,144,72,0,288,216,144,72,0,288,144,144,72,0,288,216,144,72,0,288,216,144,72,0,288,216,603be4b0babbb59215931fe0,60464aa65d45c60e29c120ce,2021-03-08_16h02.58.951,Impossible2021,2020.1.3,Win32,60,60462d2f8138f40887a79fc4,,,d,1,0.542355,0,47,47,20,1,1,,
,,,,,,,,,,,,,,,,,,,,,,,,,,,,,,,images/42possible.bmp,images/42possible.bmp,images/42possible.bmp,images/42possible.bmp,images/42possible.bmp,,,,,,,,,,,,,,,images/42possible.bmp,,d,possible,144,144,72,0,288,216,144,72,0,288,216,144,72,0,288,216,72,72,0,288,216,144,72,0,288,216,144,72,0,288,216,144,603be4b0babbb59215931fe0,60464aa65d45c60e29c120ce,2021-03-08_16h02.58.951,Impossible2021,2020.1.3,Win32,60,60462d2f8138f40887a79fc4,,,s,0,1.25567,0,48,48,115,1,5,,
,,,,,,,,,,,,,,,,,,,,,,,,images/65possible.bmp,images/65possible.bmp,images/65possible.bmp,,,,,,,,,,,,,,,images/65possible.bmp,,,,,,,,,,,s,possible,144,144,72,0,288,216,144,72,0,288,216,144,72,0,288,216,144,144,72,0,288,216,144,72,0,288,216,144,72,0,288,216,603be4b0babbb59215931fe0,60464aa65d45c60e29c120ce,2021-03-08_16h02.58.951,Impossible2021,2020.1.3,Win32,60,60462d2f8138f40887a79fc4,,,s,1,0.772695,0,49,49,64,1,3,,
,,,,,,,,,,,,,,,,,,,,,,images/42impossible.bmp,images/42impossible.bmp,,,,,,,,,,,,,,,,images/42impossible.bmp,,,,,,,,,,,,,d,impossible,144,144,72,0,288,216,144,72,0,288,216,144,72,0,288,216,72,72,0,288,216,144,72,0,288,216,144,72,0,288,216,144,603be4b0babbb59215931fe0,60464aa65d45c60e29c120ce,2021-03-08_16h02.58.951,Impossible2021,2020.1.3,Win32,60,60462d2f8138f40887a79fc4,,,d,1,0.89372,0,50,50,43,1,2,,
,,,,,,,,,,,,,,,,,,,,,,,,,,,images/65impossible.bmp,images/65impossible.bmp,images/65impossible.bmp,images/65impossible.bmp,,,,,,,,,,,,,,,images/65impossible.bmp,,,,,,,d,impossible,144,144,72,0,288,216,144,72,0,288,216,144,72,0,288,216,72,72,0,288,216,144,72,0,288,216,144,72,0,288,216,144,603be4b0babbb59215931fe0,60464aa65d45c60e29c120ce,2021-03-08_16h02.58.951,Impossible2021,2020.1.3,Win32,60,60462d2f8138f40887a79fc4,,,d,1,1.079685,0,51,51,94,1,4,,
,,,,,,,,,,,,,,,,,,,,,,,,,,,,,,,images/24impossible.bmp,images/24impossible.bmp,images/24impossible.bmp,images/24impossible.bmp,images/24impossible.bmp,,,,,,,,,,,,images/24impossible.bmp,,,,,s,impossible,0,0,288,216,144,72,0,288,216,144,72,0,288,216,144,72,0,0,288,216,144,72,0,288,216,144,72,0,288,216,144,72,603be4b0babbb59215931fe0,60464aa65d45c60e29c120ce,2021-03-08_16h02.58.951,Impossible2021,2020.1.3,Win32,60,60462d2f8138f40887a79fc4,,,s,1,1.047035,0,52,52,100,1,5,,
,,,,,,,,,,,,,,,,,,,,,,images/69impossible.bmp,images/69impossible.bmp,,,,,,,,,,,,,,,,images/69impossible.bmp,,,,,,,,,,,,,s,impossible,216,216,144,72,0,288,216,144,72,0,288,216,144,72,0,288,216,216,144,72,0,288,216,144,72,0,288,216,144,72,0,288,603be4b0babbb59215931fe0,60464aa65d45c60e29c120ce,2021-03-08_16h02.58.951,Impossible2021,2020.1.3,Win32,60,60462d2f8138f40887a79fc4,,,s,1,1.16108,0,53,53,41,1,2,,
,,,,,,,,,,,,,,,,,,,,,,images/42impossible.bmp,images/42impossible.bmp,,,,,,,,,,,,,,,,images/42impossible.bmp,,,,,,,,,,,,,s,impossible,144,144,72,0,288,216,144,72,0,288,216,144,72,0,288,216,144,144,72,0,288,216,144,72,0,288,216,144,72,0,288,216,603be4b0babbb59215931fe0,60464aa65d45c60e29c120ce,2021-03-08_16h02.58.951,Impossible2021,2020.1.3,Win32,60,60462d2f8138f40887a79fc4,,,s,1,1.24357,0,54,54,37,1,2,,
,,,,,,,,,,,,,,,,,,,,,,,,,,,images/38impossible.bmp,images/38impossible.bmp,images/38impossible.bmp,images/38impossible.bmp,,,,,,,,,,,,,images/38impossible.bmp,,,,,,,,,s,impossible,72,72,0,288,216,144,72,0,288,216,144,72,0,288,216,144,72,72,0,288,216,144,72,0,288,216,144,72,0,288,216,144,603be4b0babbb59215931fe0,60464aa65d45c60e29c120ce,2021-03-08_16h02.58.951,Impossible2021,2020.1.3,Win32,60,60462d2f8138f40887a79fc4,,,s,1,0.91314,0,55,55,84,1,4,,
,,,,,,,,,,,,,,,,,,,,,,,,,,,,,,,images/38possible.bmp,images/38possible.bmp,images/38possible.bmp,images/38possible.bmp,images/38possible.bmp,,,,,,,,,,,,,,,,images/38possible.bmp,d,possible,72,72,0,288,216,144,72,0,288,216,144,72,0,288,216,144,0,0,288,216,144,72,0,288,216,144,72,0,288,216,144,72,603be4b0babbb59215931fe0,60464aa65d45c60e29c120ce,2021-03-08_16h02.58.951,Impossible2021,2020.1.3,Win32,60,60462d2f8138f40887a79fc4,,,s,0,0.816625,0,56,56,114,1,5,,
,,,,,,,,,,,,,,,,,,,,,,,,,,,,,,,images/65possible.bmp,images/65possible.bmp,images/65possible.bmp,images/65possible.bmp,images/65possible.bmp,,,,,,,,,,,,,images/65possible.bmp,,,,d,possible,144,144,72,0,288,216,144,72,0,288,216,144,72,0,288,216,72,72,0,288,216,144,72,0,288,216,144,72,0,288,216,144,603be4b0babbb59215931fe0,60464aa65d45c60e29c120ce,2021-03-08_16h02.58.951,Impossible2021,2020.1.3,Win32,60,60462d2f8138f40887a79fc4,,,d,1,0.97881,0,57,57,118,1,5,,
,,,,,,,,,,,,,,,,,,,,,,images/08possible.bmp,images/08possible.bmp,,,,,,,,,,,,,,,images/08possible.bmp,,,,,,,,,,,,,,d,possible,288,288,216,144,72,0,288,216,144,72,0,288,216,144,72,0,216,216,144,72,0,288,216,144,72,0,288,216,144,72,0,288,603be4b0babbb59215931fe0,60464aa65d45c60e29c120ce,2021-03-08_16h02.58.951,Impossible2021,2020.1.3,Win32,60,60462d2f8138f40887a79fc4,,,d,1,0.924485,0,58,58,32,1,2,,
,,,,,,,,,,,,,,,,,,,,,images/22impossible.bmp,,,,,,,,,,,,,,,,images/22impossible.bmp,,,,,,,,,,,,,,,s,impossible,216,216,144,72,0,288,216,144,72,0,288,216,144,72,0,288,216,216,144,72,0,288,216,144,72,0,288,216,144,72,0,288,603be4b0babbb59215931fe0,60464aa65d45c60e29c120ce,2021-03-08_16h02.58.951,Impossible2021,2020.1.3,Win32,60,60462d2f8138f40887a79fc4,,,s,1,0.849895,0,59,59,3,1,1,,
,,,,,,,,,,,,,,,,,,,,,,,,,,,images/25possible.bmp,images/25possible.bmp,images/25possible.bmp,images/25possible.bmp,,,,,,,,,,,,,,images/25possible.bmp,,,,,,,,d,possible,72,72,0,288,216,144,72,0,288,216,144,72,0,288,216,144,0,0,288,216,144,72,0,288,216,144,72,0,288,216,144,72,603be4b0babbb59215931fe0,60464aa65d45c60e29c120ce,2021-03-08_16h02.58.951,Impossible2021,2020.1.3,Win32,60,60462d2f8138f40887a79fc4,,,s,0,1.317355,0,60,60,83,1,4,,
,,,,,,,,,,,,,,,,,,,,,,images/22possible.bmp,images/22possible.bmp,,,,,,,,,,,,,,,,images/22possible.bmp,,,,,,,,,,,,,s,possible,216,216,144,72,0,288,216,144,72,0,288,216,144,72,0,288,216,216,144,72,0,288,216,144,72,0,288,216,144,72,0,288,603be4b0babbb59215931fe0,60464aa65d45c60e29c120ce,2021-03-08_16h02.58.951,Impossible2021,2020.1.3,Win32,60,60462d2f8138f40887a79fc4,,,s,1,0.951695,0,61,61,27,1,2,,
,,,,,,,,,,,,,,,,,,,,,,,,images/69possible.bmp,images/69possible.bmp,images/69possible.bmp,,,,,,,,,,,,,,images/69possible.bmp,,,,,,,,,,,,d,possible,216,216,144,72,0,288,216,144,72,0,288,216,144,72,0,288,144,144,72,0,288,216,144,72,0,288,216,144,72,0,288,216,603be4b0babbb59215931fe0,60464aa65d45c60e29c120ce,2021-03-08_16h02.58.951,Impossible2021,2020.1.3,Win32,60,60462d2f8138f40887a79fc4,,,d,1,0.87131,0,62,62,71,1,3,,
,,,,,,,,,,,,,,,,,,,,,,images/24possible.bmp,images/24possible.bmp,,,,,,,,,,,,,,,images/24possible.bmp,,,,,,,,,,,,,,d,possible,0,0,288,216,144,72,0,288,216,144,72,0,288,216,144,72,288,288,216,144,72,0,288,216,144,72,0,288,216,144,72,0,603be4b0babbb59215931fe0,60464aa65d45c60e29c120ce,2021-03-08_16h02.58.951,Impossible2021,2020.1.3,Win32,60,60462d2f8138f40887a79fc4,,,d,1,0.677585,0,63,63,34,1,2,,
,,,,,,,,,,,,,,,,,,,,,,images/08possible.bmp,images/08possible.bmp,,,,,,,,,,,,,,,images/08possible.bmp,,,,,,,,,,,,,,s,possible,288,288,216,144,72,0,288,216,144,72,0,288,216,144,72,0,288,288,216,144,72,0,288,216,144,72,0,288,216,144,72,0,603be4b0babbb59215931fe0,60464aa65d45c60e29c120ce,2021-03-08_16h02.58.951,Impossible2021,2020.1.3,Win32,60,60462d2f8138f40887a79fc4,,,s,1,2.081335,0,64,64,26,1,2,,
,,,,,,,,,,,,,,,,,,,,images/38possible.bmp,,,,,,,,,,,,,,,,images/38possible.bmp,,,,,,,,,,,,,,,,s,possible,72,72,0,288,216,144,72,0,288,216,144,72,0,288,216,144,72,72,0,288,216,144,72,0,288,216,144,72,0,288,216,144,603be4b0babbb59215931fe0,60464aa65d45c60e29c120ce,2021-03-08_16h02.58.951,Impossible2021,2020.1.3,Win32,60,60462d2f8138f40887a79fc4,,,s,1,0.67669,0,65,65,12,1,1,,
,,,,,,,,,,,,,,,,,,,,,,,,,,,images/44impossible.bmp,images/44impossible.bmp,images/44impossible.bmp,images/44impossible.bmp,,,,,,,,,,,,,,,images/44impossible.bmp,,,,,,,s,impossible,216,216,144,72,0,288,216,144,72,0,288,216,144,72,0,288,216,216,144,72,0,288,216,144,72,0,288,216,144,72,0,288,603be4b0babbb59215931fe0,60464aa65d45c60e29c120ce,2021-03-08_16h02.58.951,Impossible2021,2020.1.3,Win32,60,60462d2f8138f40887a79fc4,,,s,1,0.546905,0,66,66,86,1,4,,
,,,,,,,,,,,,,,,,,,,,,,,,,,,images/08possible.bmp,images/08possible.bmp,images/08possible.bmp,images/08possible.bmp,,,,,,,,,,,,,,,images/08possible.bmp,,,,,,,s,possible,288,288,216,144,72,0,288,216,144,72,0,288,216,144,72,0,288,288,216,144,72,0,288,216,144,72,0,288,216,144,72,0,603be4b0babbb59215931fe0,60464aa65d45c60e29c120ce,2021-03-08_16h02.58.951,Impossible2021,2020.1.3,Win32,60,60462d2f8138f40887a79fc4,,,d,0,0.845365,0,67,67,74,1,4,,
,,,,,,,,,,,,,,,,,,,,,,,,,,,,,,,images/25impossible.bmp,images/25impossible.bmp,images/25impossible.bmp,images/25impossible.bmp,images/25impossible.bmp,,,,,,,,,,,,,images/25impossible.bmp,,,,s,impossible,72,72,0,288,216,144,72,0,288,216,144,72,0,288,216,144,72,72,0,288,216,144,72,0,288,216,144,72,0,288,216,144,603be4b0babbb59215931fe0,60464aa65d45c60e29c120ce,2021-03-08_16h02.58.951,Impossible2021,2020.1.3,Win32,60,60462d2f8138f40887a79fc4,,,d,0,0.897095,0,68,68,101,1,5,,
,,,,,,,,,,,,,,,,,,,,,,images/25possible.bmp,images/25possible.bmp,,,,,,,,,,,,,,,,images/25possible.bmp,,,,,,,,,,,,,d,possible,72,72,0,288,216,144,72,0,288,216,144,72,0,288,216,144,0,0,288,216,144,72,0,288,216,144,72,0,288,216,144,72,603be4b0babbb59215931fe0,60464aa65d45c60e29c120ce,2021-03-08_16h02.58.951,Impossible2021,2020.1.3,Win32,60,60462d2f8138f40887a79fc4,,,s,0,1.34275,0,69,69,35,1,2,,
,,,,,,,,,,,,,,,,,,,,,,,,,,,,,,,images/08impossible.bmp,images/08impossible.bmp,images/08impossible.bmp,images/08impossible.bmp,images/08impossible.bmp,,,,,,,,,,,,,images/08impossible.bmp,,,,d,impossible,288,288,216,144,72,0,288,216,144,72,0,288,216,144,72,0,216,216,144,72,0,288,216,144,72,0,288,216,144,72,0,288,603be4b0babbb59215931fe0,60464aa65d45c60e29c120ce,2021-03-08_16h02.58.951,Impossible2021,2020.1.3,Win32,60,60462d2f8138f40887a79fc4,,,s,0,1.09417,0,70,70,104,1,5,,
,,,,,,,,,,,,,,,,,,,,,,,,images/05impossible.bmp,images/05impossible.bmp,images/05impossible.bmp,,,,,,,,,,,,,,,,images/05impossible.bmp,,,,,,,,,,s,impossible,216,216,144,72,0,288,216,144,72,0,288,216,144,72,0,288,216,216,144,72,0,288,216,144,72,0,288,216,144,72,0,288,603be4b0babbb59215931fe0,60464aa65d45c60e29c120ce,2021-03-08_16h02.58.951,Impossible2021,2020.1.3,Win32,60,60462d2f8138f40887a79fc4,,,s,1,0.81218,0,71,71,49,1,3,,
,,,,,,,,,,,,,,,,,,,,images/05impossible.bmp,,,,,,,,,,,,,,,,images/05impossible.bmp,,,,,,,,,,,,,,,,s,impossible,216,216,144,72,0,288,216,144,72,0,288,216,144,72,0,288,216,216,144,72,0,288,216,144,72,0,288,216,144,72,0,288,603be4b0babbb59215931fe0,60464aa65d45c60e29c120ce,2021-03-08_16h02.58.951,Impossible2021,2020.1.3,Win32,60,60462d2f8138f40887a79fc4,,,s,1,0.56918,0,72,72,1,1,1,,
,,,,,,,,,,,,,,,,,,,,,,,,images/22impossible.bmp,images/22impossible.bmp,images/22impossible.bmp,,,,,,,,,,,,,,,,images/22impossible.bmp,,,,,,,,,,s,impossible,216,216,144,72,0,288,216,144,72,0,288,216,144,72,0,288,216,216,144,72,0,288,216,144,72,0,288,216,144,72,0,288,603be4b0babbb59215931fe0,60464aa65d45c60e29c120ce,2021-03-08_16h02.58.951,Impossible2021,2020.1.3,Win32,60,60462d2f8138f40887a79fc4,,,d,0,1.20916,0,73,73,51,1,3,,
,,,,,,,,,,,,,,,,,,,,,,,,images/44possible.bmp,images/44possible.bmp,images/44possible.bmp,,,,,,,,,,,,,,images/44possible.bmp,,,,,,,,,,,,d,possible,216,216,144,72,0,288,216,144,72,0,288,216,144,72,0,288,144,144,72,0,288,216,144,72,0,288,216,144,72,0,288,216,603be4b0babbb59215931fe0,60464aa65d45c60e29c120ce,2021-03-08_16h02.58.951,Impossible2021,2020.1.3,Win32,60,60462d2f8138f40887a79fc4,,,d,1,0.867945,0,74,74,68,1,3,,
,,,,,,,,,,,,,,,,,,,,,,images/05possible.bmp,images/05possible.bmp,,,,,,,,,,,,,,,,images/05possible.bmp,,,,,,,,,,,,,d,possible,216,216,144,72,0,288,216,144,72,0,288,216,144,72,0,288,144,144,72,0,288,216,144,72,0,288,216,144,72,0,288,216,603be4b0babbb59215931fe0,60464aa65d45c60e29c120ce,2021-03-08_16h02.58.951,Impossible2021,2020.1.3,Win32,60,60462d2f8138f40887a79fc4,,,d,1,1.00194,0,75,75,31,1,2,,
,,,,,,,,,,,,,,,,,,,,,,,,,,,images/42impossible.bmp,images/42impossible.bmp,images/42impossible.bmp,images/42impossible.bmp,,,,,,,,,,,,,,,,images/42impossible.bmp,,,,,,s,impossible,144,144,72,0,288,216,144,72,0,288,216,144,72,0,288,216,144,144,72,0,288,216,144,72,0,288,216,144,72,0,288,216,603be4b0babbb59215931fe0,60464aa65d45c60e29c120ce,2021-03-08_16h02.58.951,Impossible2021,2020.1.3,Win32,60,60462d2f8138f40887a79fc4,,,s,1,0.894405,0,76,76,85,1,4,,
,,,,,,,,,,,,,,,,,,,,,,images/55impossible.bmp,images/55impossible.bmp,,,,,,,,,,,,,,,,images/55impossible.bmp,,,,,,,,,,,,,s,impossible,72,72,0,288,216,144,72,0,288,216,144,72,0,288,216,144,72,72,0,288,216,144,72,0,288,216,144,72,0,288,216,144,603be4b0babbb59215931fe0,60464aa65d45c60e29c120ce,2021-03-08_16h02.58.951,Impossible2021,2020.1.3,Win32,60,60462d2f8138f40887a79fc4,,,s,1,0.87732,0,77,77,39,1,2,,
,,,,,,,,,,,,,,,,,,,,,,,,,,,,,,,images/25impossible.bmp,images/25impossible.bmp,images/25impossible.bmp,images/25impossible.bmp,images/25impossible.bmp,,,,,,,,,,,,,,,,images/25impossible.bmp,d,impossible,72,72,0,288,216,144,72,0,288,216,144,72,0,288,216,144,0,0,288,216,144,72,0,288,216,144,72,0,288,216,144,72,603be4b0babbb59215931fe0,60464aa65d45c60e29c120ce,2021-03-08_16h02.58.951,Impossible2021,2020.1.3,Win32,60,60462d2f8138f40887a79fc4,,,s,0,0.946155,0,78,78,107,1,5,,
,,,,,,,,,,,,,,,,,,,,,,images/55impossible.bmp,images/55impossible.bmp,,,,,,,,,,,,,,,,images/55impossible.bmp,,,,,,,,,,,,,d,impossible,72,72,0,288,216,144,72,0,288,216,144,72,0,288,216,144,0,0,288,216,144,72,0,288,216,144,72,0,288,216,144,72,603be4b0babbb59215931fe0,60464aa65d45c60e29c120ce,2021-03-08_16h02.58.951,Impossible2021,2020.1.3,Win32,60,60462d2f8138f40887a79fc4,,,d,1,1.396695,0,79,79,45,1,2,,
,,,,,,,,,,,,,,,,,,,,,,,,images/25impossible.bmp,images/25impossible.bmp,images/25impossible.bmp,,,,,,,,,,,,,,images/25impossible.bmp,,,,,,,,,,,,s,impossible,72,72,0,288,216,144,72,0,288,216,144,72,0,288,216,144,72,72,0,288,216,144,72,0,288,216,144,72,0,288,216,144,603be4b0babbb59215931fe0,60464aa65d45c60e29c120ce,2021-03-08_16h02.58.951,Impossible2021,2020.1.3,Win32,60,60462d2f8138f40887a79fc4,,,s,1,0.85148,0,80,80,53,1,3,,
,,,,,,,,,,,,,,,,,,,,,,,,,,,images/38impossible.bmp,images/38impossible.bmp,images/38impossible.bmp,images/38impossible.bmp,,,,,,,,,,,,,,,images/38impossible.bmp,,,,,,,d,impossible,72,72,0,288,216,144,72,0,288,216,144,72,0,288,216,144,0,0,288,216,144,72,0,288,216,144,72,0,288,216,144,72,603be4b0babbb59215931fe0,60464aa65d45c60e29c120ce,2021-03-08_16h02.58.951,Impossible2021,2020.1.3,Win32,60,60462d2f8138f40887a79fc4,,,d,1,0.874485,0,81,81,90,1,4,,
,,,,,,,,,,,,,,,,,,,,,,,,images/42possible.bmp,images/42possible.bmp,images/42possible.bmp,,,,,,,,,,,,,,,,images/42possible.bmp,,,,,,,,,,s,possible,144,144,72,0,288,216,144,72,0,288,216,144,72,0,288,216,144,144,72,0,288,216,144,72,0,288,216,144,72,0,288,216,603be4b0babbb59215931fe0,60464aa65d45c60e29c120ce,2021-03-08_16h02.58.951,Impossible2021,2020.1.3,Win32,60,60462d2f8138f40887a79fc4,,,s,1,0.78375,0,82,82,61,1,3,,
,,,,,,,,,,,,,,,,,,,,,images/05impossible.bmp,,,,,,,,,,,,,,,,images/05impossible.bmp,,,,,,,,,,,,,,,d,impossible,216,216,144,72,0,288,216,144,72,0,288,216,144,72,0,288,144,144,72,0,288,216,144,72,0,288,216,144,72,0,288,216,603be4b0babbb59215931fe0,60464aa65d45c60e29c120ce,2021-03-08_16h02.58.951,Impossible2021,2020.1.3,Win32,60,60462d2f8138f40887a79fc4,,,d,1,0.66194,0,83,83,7,1,1,,
,,,,,,,,,,,,,,,,,,,,,images/24impossible.bmp,,,,,,,,,,,,,,,,images/24impossible.bmp,,,,,,,,,,,,,,,s,impossible,0,0,288,216,144,72,0,288,216,144,72,0,288,216,144,72,0,0,288,216,144,72,0,288,216,144,72,0,288,216,144,72,603be4b0babbb59215931fe0,60464aa65d45c60e29c120ce,2021-03-08_16h02.58.951,Impossible2021,2020.1.3,Win32,60,60462d2f8138f40887a79fc4,,,s,1,0.634165,0,84,84,4,1,1,,
,,,,,,,,,,,,,,,,,,,,,,,,images/03impossible.bmp,images/03impossible.bmp,images/03impossible.bmp,,,,,,,,,,,,,,,images/03impossible.bmp,,,,,,,,,,,s,impossible,72,72,0,288,216,144,72,0,288,216,144,72,0,288,216,144,72,72,0,288,216,144,72,0,288,216,144,72,0,288,216,144,603be4b0babbb59215931fe0,60464aa65d45c60e29c120ce,2021-03-08_16h02.58.951,Impossible2021,2020.1.3,Win32,60,60462d2f8138f40887a79fc4,,,s,1,0.6929,0,85,85,48,1,3,,
,,,,,,,,,,,,,,,,,,,,,,,,,,,images/55impossible.bmp,images/55impossible.bmp,images/55impossible.bmp,images/55impossible.bmp,,,,,,,,,,,,,,,,images/55impossible.bmp,,,,,,d,impossible,72,72,0,288,216,144,72,0,288,216,144,72,0,288,216,144,0,0,288,216,144,72,0,288,216,144,72,0,288,216,144,72,603be4b0babbb59215931fe0,60464aa65d45c60e29c120ce,2021-03-08_16h02.58.951,Impossible2021,2020.1.3,Win32,60,60462d2f8138f40887a79fc4,,,d,1,0.85944,0,86,86,93,1,4,,
,,,,,,,,,,,,,,,,,,,,,,,,,,,images/22possible.bmp,images/22possible.bmp,images/22possible.bmp,images/22possible.bmp,,,,,,,,,,,,,,images/22possible.bmp,,,,,,,,s,possible,216,216,144,72,0,288,216,144,72,0,288,216,144,72,0,288,216,216,144,72,0,288,216,144,72,0,288,216,144,72,0,288,603be4b0babbb59215931fe0,60464aa65d45c60e29c120ce,2021-03-08_16h02.58.951,Impossible2021,2020.1.3,Win32,60,60462d2f8138f40887a79fc4,,,s,1,0.93546,0,87,87,75,1,4,,
,,,,,,,,,,,,,,,,,,,,,,,,,,,,,,,images/69possible.bmp,images/69possible.bmp,images/69possible.bmp,images/69possible.bmp,images/69possible.bmp,,,,,,,,,,,,,,images/69possible.bmp,,,s,possible,216,216,144,72,0,288,216,144,72,0,288,216,144,72,0,288,216,216,144,72,0,288,216,144,72,0,288,216,144,72,0,288,603be4b0babbb59215931fe0,60464aa65d45c60e29c120ce,2021-03-08_16h02.58.951,Impossible2021,2020.1.3,Win32,60,60462d2f8138f40887a79fc4,,,s,1,0.853075,0,88,88,113,1,5,,
,,,,,,,,,,,,,,,,,,,,,,,,,,,images/24possible.bmp,images/24possible.bmp,images/24possible.bmp,images/24possible.bmp,,,,,,,,,,,,,,,,images/24possible.bmp,,,,,,d,possible,0,0,288,216,144,72,0,288,216,144,72,0,288,216,144,72,288,288,216,144,72,0,288,216,144,72,0,288,216,144,72,0,603be4b0babbb59215931fe0,60464aa65d45c60e29c120ce,2021-03-08_16h02.58.951,Impossible2021,2020.1.3,Win32,60,60462d2f8138f40887a79fc4,,,d,1,1.074975,0,89,89,82,1,4,,
,,,,,,,,,,,,,,,,,,,,,,,,,,,,,,,images/05impossible.bmp,images/05impossible.bmp,images/05impossible.bmp,images/05impossible.bmp,images/05impossible.bmp,,,,,,,,,,,,,,images/05impossible.bmp,,,d,impossible,216,216,144,72,0,288,216,144,72,0,288,216,144,72,0,288,144,144,72,0,288,216,144,72,0,288,216,144,72,0,288,216,603be4b0babbb59215931fe0,60464aa65d45c60e29c120ce,2021-03-08_16h02.58.951,Impossible2021,2020.1.3,Win32,60,60462d2f8138f40887a79fc4,,,d,1,1.73301,0,90,90,103,1,5,,
,,,,,,,,,,,,,,,,,,,,,,images/25possible.bmp,images/25possible.bmp,,,,,,,,,,,,,,,,images/25possible.bmp,,,,,,,,,,,,,s,possible,72,72,0,288,216,144,72,0,288,216,144,72,0,288,216,144,72,72,0,288,216,144,72,0,288,216,144,72,0,288,216,144,603be4b0babbb59215931fe0,60464aa65d45c60e29c120ce,2021-03-08_16h02.58.951,Impossible2021,2020.1.3,Win32,60,60462d2f8138f40887a79fc4,,,s,1,0.96169,0,91,91,29,1,2,,
,,,,,,,,,,,,,,,,,,,,,,,,images/55possible.bmp,images/55possible.bmp,images/55possible.bmp,,,,,,,,,,,,,,,images/55possible.bmp,,,,,,,,,,,d,possible,72,72,0,288,216,144,72,0,288,216,144,72,0,288,216,144,0,0,288,216,144,72,0,288,216,144,72,0,288,216,144,72,603be4b0babbb59215931fe0,60464aa65d45c60e29c120ce,2021-03-08_16h02.58.951,Impossible2021,2020.1.3,Win32,60,60462d2f8138f40887a79fc4,,,d,1,0.927,0,92,92,69,1,3,,
,,,,,,,,,,,,,,,,,,,,,,,,,,,,,,,images/65possible.bmp,images/65possible.bmp,images/65possible.bmp,images/65possible.bmp,images/65possible.bmp,,,,,,,,,,,,,,,images/65possible.bmp,,s,possible,144,144,72,0,288,216,144,72,0,288,216,144,72,0,288,216,144,144,72,0,288,216,144,72,0,288,216,144,72,0,288,216,603be4b0babbb59215931fe0,60464aa65d45c60e29c120ce,2021-03-08_16h02.58.951,Impossible2021,2020.1.3,Win32,60,60462d2f8138f40887a79fc4,,,s,1,0.698215,0,93,93,112,1,5,,
,,,,,,,,,,,,,,,,,,,,,,images/44impossible.bmp,images/44impossible.bmp,,,,,,,,,,,,,,,images/44impossible.bmp,,,,,,,,,,,,,,s,impossible,216,216,144,72,0,288,216,144,72,0,288,216,144,72,0,288,216,216,144,72,0,288,216,144,72,0,288,216,144,72,0,288,603be4b0babbb59215931fe0,60464aa65d45c60e29c120ce,2021-03-08_16h02.58.951,Impossible2021,2020.1.3,Win32,60,60462d2f8138f40887a79fc4,,,s,1,0.850635,0,94,94,38,1,2,,
,,,,,,,,,,,,,,,,,,,,,,,,,,,images/08possible.bmp,images/08possible.bmp,images/08possible.bmp,images/08possible.bmp,,,,,,,,,,,,,images/08possible.bmp,,,,,,,,,d,possible,288,288,216,144,72,0,288,216,144,72,0,288,216,144,72,0,216,216,144,72,0,288,216,144,72,0,288,216,144,72,0,288,603be4b0babbb59215931fe0,60464aa65d45c60e29c120ce,2021-03-08_16h02.58.951,Impossible2021,2020.1.3,Win32,60,60462d2f8138f40887a79fc4,,,d,1,0.744745,0,95,95,80,1,4,,
,,,,,,,,,,,,,,,,,,,,,,,,images/24impossible.bmp,images/24impossible.bmp,images/24impossible.bmp,,,,,,,,,,,,,,,images/24impossible.bmp,,,,,,,,,,,d,impossible,0,0,288,216,144,72,0,288,216,144,72,0,288,216,144,72,288,288,216,144,72,0,288,216,144,72,0,288,216,144,72,0,603be4b0babbb59215931fe0,60464aa65d45c60e29c120ce,2021-03-08_16h02.58.951,Impossible2021,2020.1.3,Win32,60,60462d2f8138f40887a79fc4,,,s,0,1.07611,0,96,96,58,1,3,,
,,,,,,,,,,,,,,,,,,,,,,,,,,,,,,,images/44possible.bmp,images/44possible.bmp,images/44possible.bmp,images/44possible.bmp,images/44possible.bmp,,,,,,,,,,,,,,images/44possible.bmp,,,s,possible,216,216,144,72,0,288,216,144,72,0,288,216,144,72,0,288,216,216,144,72,0,288,216,144,72,0,288,216,144,72,0,288,603be4b0babbb59215931fe0,60464aa65d45c60e29c120ce,2021-03-08_16h02.58.951,Impossible2021,2020.1.3,Win32,60,60462d2f8138f40887a79fc4,,,d,0,0.917815,0,97,97,110,1,5,,
,,,,,,,,,,,,,,,,,,,,,images/03impossible.bmp,,,,,,,,,,,,,,,,images/03impossible.bmp,,,,,,,,,,,,,,,d,impossible,72,72,0,288,216,144,72,0,288,216,144,72,0,288,216,144,0,0,288,216,144,72,0,288,216,144,72,0,288,216,144,72,603be4b0babbb59215931fe0,60464aa65d45c60e29c120ce,2021-03-08_16h02.58.951,Impossible2021,2020.1.3,Win32,60,60462d2f8138f40887a79fc4,,,d,1,0.596655,0,98,98,6,1,1,,
,,,,,,,,,,,,,,,,,,,,,,images/69impossible.bmp,images/69impossible.bmp,,,,,,,,,,,,,,,,images/69impossible.bmp,,,,,,,,,,,,,d,impossible,216,216,144,72,0,288,216,144,72,0,288,216,144,72,0,288,144,144,72,0,288,216,144,72,0,288,216,144,72,0,288,216,603be4b0babbb59215931fe0,60464aa65d45c60e29c120ce,2021-03-08_16h02.58.951,Impossible2021,2020.1.3,Win32,60,60462d2f8138f40887a79fc4,,,d,1,1.029055,0,99,99,47,1,2,,
,,,,,,,,,,,,,,,,,,,,,,,,images/65possible.bmp,images/65possible.bmp,images/65possible.bmp,,,,,,,,,,,,,,images/65possible.bmp,,,,,,,,,,,,d,possible,144,144,72,0,288,216,144,72,0,288,216,144,72,0,288,216,72,72,0,288,216,144,72,0,288,216,144,72,0,288,216,144,603be4b0babbb59215931fe0,60464aa65d45c60e29c120ce,2021-03-08_16h02.58.951,Impossible2021,2020.1.3,Win32,60,60462d2f8138f40887a79fc4,,,d,1,1.12919,0,100,100,70,1,3,,
,,,,,,,,,,,,,,,,,,,,,,,,,,,,,,,images/22impossible.bmp,images/22impossible.bmp,images/22impossible.bmp,images/22impossible.bmp,images/22impossible.bmp,,,,,,,,,,,,,images/22impossible.bmp,,,,s,impossible,216,216,144,72,0,288,216,144,72,0,288,216,144,72,0,288,216,216,144,72,0,288,216,144,72,0,288,216,144,72,0,288,603be4b0babbb59215931fe0,60464aa65d45c60e29c120ce,2021-03-08_16h02.58.951,Impossible2021,2020.1.3,Win32,60,60462d2f8138f40887a79fc4,,,s,1,0.603145,0,101,101,99,1,5,,
,,,,,,,,,,,,,,,,,,,,,images/65possible.bmp,,,,,,,,,,,,,,,,images/65possible.bmp,,,,,,,,,,,,,,,d,possible,144,144,72,0,288,216,144,72,0,288,216,144,72,0,288,216,72,72,0,288,216,144,72,0,288,216,144,72,0,288,216,144,603be4b0babbb59215931fe0,60464aa65d45c60e29c120ce,2021-03-08_16h02.58.951,Impossible2021,2020.1.3,Win32,60,60462d2f8138f40887a79fc4,,,d,1,0.59373,0,102,102,22,1,1,,
,,,,,,,,,,,,,,,,,,,,,,images/22possible.bmp,images/22possible.bmp,,,,,,,,,,,,,,,,images/22possible.bmp,,,,,,,,,,,,,d,possible,216,216,144,72,0,288,216,144,72,0,288,216,144,72,0,288,144,144,72,0,288,216,144,72,0,288,216,144,72,0,288,216,603be4b0babbb59215931fe0,60464aa65d45c60e29c120ce,2021-03-08_16h02.58.951,Impossible2021,2020.1.3,Win32,60,60462d2f8138f40887a79fc4,,,s,0,0.961145,0,103,103,33,1,2,,
,,,,,,,,,,,,,,,,,,,,,images/42possible.bmp,,,,,,,,,,,,,,,,images/42possible.bmp,,,,,,,,,,,,,,,s,possible,144,144,72,0,288,216,144,72,0,288,216,144,72,0,288,216,144,144,72,0,288,216,144,72,0,288,216,144,72,0,288,216,603be4b0babbb59215931fe0,60464aa65d45c60e29c120ce,2021-03-08_16h02.58.951,Impossible2021,2020.1.3,Win32,60,60462d2f8138f40887a79fc4,,,s,1,0.82645,0,104,104,13,1,1,,
,,,,,,,,,,,,,,,,,,,,,,,,,,,,,,,images/03impossible.bmp,images/03impossible.bmp,images/03impossible.bmp,images/03impossible.bmp,images/03impossible.bmp,,,,,,,,,,,,,,,,images/03impossible.bmp,d,impossible,72,72,0,288,216,144,72,0,288,216,144,72,0,288,216,144,0,0,288,216,144,72,0,288,216,144,72,0,288,216,144,72,603be4b0babbb59215931fe0,60464aa65d45c60e29c120ce,2021-03-08_16h02.58.951,Impossible2021,2020.1.3,Win32,60,60462d2f8138f40887a79fc4,,,s,0,1.001545,0,105,105,102,1,5,,
,,,,,,,,,,,,,,,,,,,,,,images/05possible.bmp,images/05possible.bmp,,,,,,,,,,,,,,,,images/05possible.bmp,,,,,,,,,,,,,s,possible,216,216,144,72,0,288,216,144,72,0,288,216,144,72,0,288,216,216,144,72,0,288,216,144,72,0,288,216,144,72,0,288,603be4b0babbb59215931fe0,60464aa65d45c60e29c120ce,2021-03-08_16h02.58.951,Impossible2021,2020.1.3,Win32,60,60462d2f8138f40887a79fc4,,,s,1,0.71344,0,106,106,25,1,2,,
,,,,,,,,,,,,,,,,,,,,,,,,,,,images/22possible.bmp,images/22possible.bmp,images/22possible.bmp,images/22possible.bmp,,,,,,,,,,,,,,,images/22possible.bmp,,,,,,,d,possible,216,216,144,72,0,288,216,144,72,0,288,216,144,72,0,288,144,144,72,0,288,216,144,72,0,288,216,144,72,0,288,216,603be4b0babbb59215931fe0,60464aa65d45c60e29c120ce,2021-03-08_16h02.58.951,Impossible2021,2020.1.3,Win32,60,60462d2f8138f40887a79fc4,,,d,1,0.709855,0,107,107,81,1,4,,
,,,,,,,,,,,,,,,,,,,,,,,,,,,images/05possible.bmp,images/05possible.bmp,images/05possible.bmp,images/05possible.bmp,,,,,,,,,,,,,,,images/05possible.bmp,,,,,,,d,possible,216,216,144,72,0,288,216,144,72,0,288,216,144,72,0,288,144,144,72,0,288,216,144,72,0,288,216,144,72,0,288,216,603be4b0babbb59215931fe0,60464aa65d45c60e29c120ce,2021-03-08_16h02.58.951,Impossible2021,2020.1.3,Win32,60,60462d2f8138f40887a79fc4,,,d,1,1.1781,0,108,108,79,1,4,,
,,,,,,,,,,,,,,,,,,,,,,images/65impossible.bmp,images/65impossible.bmp,,,,,,,,,,,,,,,images/65impossible.bmp,,,,,,,,,,,,,,s,impossible,144,144,72,0,288,216,144,72,0,288,216,144,72,0,288,216,144,144,72,0,288,216,144,72,0,288,216,144,72,0,288,216,603be4b0babbb59215931fe0,60464aa65d45c60e29c120ce,2021-03-08_16h02.58.951,Impossible2021,2020.1.3,Win32,60,60462d2f8138f40887a79fc4,,,d,0,0.84941,0,109,109,40,1,2,,
,,,,,,,,,,,,,,,,,,,,,,,,images/38possible.bmp,images/38possible.bmp,images/38possible.bmp,,,,,,,,,,,,,,,images/38possible.bmp,,,,,,,,,,,d,possible,72,72,0,288,216,144,72,0,288,216,144,72,0,288,216,144,0,0,288,216,144,72,0,288,216,144,72,0,288,216,144,72,603be4b0babbb59215931fe0,60464aa65d45c60e29c120ce,2021-03-08_16h02.58.951,Impossible2021,2020.1.3,Win32,60,60462d2f8138f40887a79fc4,,,d,1,0.943645,0,110,110,66,1,3,,
,,,,,,,,,,,,,,,,,,,,,images/08impossible.bmp,,,,,,,,,,,,,,,,images/08impossible.bmp,,,,,,,,,,,,,,,s,impossible,288,288,216,144,72,0,288,216,144,72,0,288,216,144,72,0,288,288,216,144,72,0,288,216,144,72,0,288,216,144,72,0,603be4b0babbb59215931fe0,60464aa65d45c60e29c120ce,2021-03-08_16h02.58.951,Impossible2021,2020.1.3,Win32,60,60462d2f8138f40887a79fc4,,,d,0,0.681105,0,111,111,2,1,1,,
,,,,,,,,,,,,,,,,,,,,,,images/03possible.bmp,images/03possible.bmp,,,,,,,,,,,,,,,images/03possible.bmp,,,,,,,,,,,,,,d,possible,72,72,0,288,216,144,72,0,288,216,144,72,0,288,216,144,0,0,288,216,144,72,0,288,216,144,72,0,288,216,144,72,603be4b0babbb59215931fe0,60464aa65d45c60e29c120ce,2021-03-08_16h02.58.951,Impossible2021,2020.1.3,Win32,60,60462d2f8138f40887a79fc4,,,d,1,0.745505,0,112,112,30,1,2,,
,,,,,,,,,,,,,,,,,,,,,,,,images/42possible.bmp,images/42possible.bmp,images/42possible.bmp,,,,,,,,,,,,,,images/42possible.bmp,,,,,,,,,,,,d,possible,144,144,72,0,288,216,144,72,0,288,216,144,72,0,288,216,72,72,0,288,216,144,72,0,288,216,144,72,0,288,216,144,603be4b0babbb59215931fe0,60464aa65d45c60e29c120ce,2021-03-08_16h02.58.951,Impossible2021,2020.1.3,Win32,60,60462d2f8138f40887a79fc4,,,d,1,1.169175,0,113,113,67,1,3,,
,,,,,,,,,,,,,,,,,,,,,,,,images/25impossible.bmp,images/25impossible.bmp,images/25impossible.bmp,,,,,,,,,,,,,,images/25impossible.bmp,,,,,,,,,,,,d,impossible,72,72,0,288,216,144,72,0,288,216,144,72,0,288,216,144,0,0,288,216,144,72,0,288,216,144,72,0,288,216,144,72,603be4b0babbb59215931fe0,60464aa65d45c60e29c120ce,2021-03-08_16h02.58.951,Impossible2021,2020.1.3,Win32,60,60462d2f8138f40887a79fc4,,,s,0,0.718415,0,114,114,59,1,3,,
,,,,,,,,,,,,,,,,,,,,,,,,,,,images/69impossible.bmp,images/69impossible.bmp,images/69impossible.bmp,images/69impossible.bmp,,,,,,,,,,,,,,,,images/69impossible.bmp,,,,,,s,impossible,216,216,144,72,0,288,216,144,72,0,288,216,144,72,0,288,216,216,144,72,0,288,216,144,72,0,288,216,144,72,0,288,603be4b0babbb59215931fe0,60464aa65d45c60e29c120ce,2021-03-08_16h02.58.951,Impossible2021,2020.1.3,Win32,60,60462d2f8138f40887a79fc4,,,s,1,1.53699,0,115,115,89,1,4,,
,,,,,,,,,,,,,,,,,,,,images/08impossible.bmp,,,,,,,,,,,,,,,,images/08impossible.bmp,,,,,,,,,,,,,,,,d,impossible,288,288,216,144,72,0,288,216,144,72,0,288,216,144,72,0,216,216,144,72,0,288,216,144,72,0,288,216,144,72,0,288,603be4b0babbb59215931fe0,60464aa65d45c60e29c120ce,2021-03-08_16h02.58.951,Impossible2021,2020.1.3,Win32,60,60462d2f8138f40887a79fc4,,,d,1,0.63444,0,116,116,8,1,1,,
,,,,,,,,,,,,,,,,,,,,,,,,,,,,,,,images/42possible.bmp,images/42possible.bmp,images/42possible.bmp,images/42possible.bmp,images/42possible.bmp,,,,,,,,,,,,,images/42possible.bmp,,,,s,possible,144,144,72,0,288,216,144,72,0,288,216,144,72,0,288,216,144,144,72,0,288,216,144,72,0,288,216,144,72,0,288,216,603be4b0babbb59215931fe0,60464aa65d45c60e29c120ce,2021-03-08_16h02.58.951,Impossible2021,2020.1.3,Win32,60,60462d2f8138f40887a79fc4,,,s,1,0.994195,0,117,117,109,1,5,,
,,,,,,,,,,,,,,,,,,,,images/65possible.bmp,,,,,,,,,,,,,,,,images/65possible.bmp,,,,,,,,,,,,,,,,s,possible,144,144,72,0,288,216,144,72,0,288,216,144,72,0,288,216,144,144,72,0,288,216,144,72,0,288,216,144,72,0,288,216,603be4b0babbb59215931fe0,60464aa65d45c60e29c120ce,2021-03-08_16h02.58.951,Impossible2021,2020.1.3,Win32,60,60462d2f8138f40887a79fc4,,,s,1,0.464085,0,118,118,16,1,1,,
,,,,,,,,,,,,,,,,,,,,,,,,,,,,,,,images/44possible.bmp,images/44possible.bmp,images/44possible.bmp,images/44possible.bmp,images/44possible.bmp,,,,,,,,,,,,,,images/44possible.bmp,,,d,possible,216,216,144,72,0,288,216,144,72,0,288,216,144,72,0,288,144,144,72,0,288,216,144,72,0,288,216,144,72,0,288,216,603be4b0babbb59215931fe0,60464aa65d45c60e29c120ce,2021-03-08_16h02.58.951,Impossible2021,2020.1.3,Win32,60,60462d2f8138f40887a79fc4,,,s,0,0.91243,0,119,119,116,1,5,,
,,,,,,,,,,,,,,,,,,,,,,,,,,,,,,,,,,,,,,,,,,,,,,,,,,,,,,,,,,,,,,,,,,,,,,,,,,,,,,,,,,,,,,603be4b0babbb59215931fe0,60464aa65d45c60e29c120ce,2021-03-08_16h02.58.951,Impossible2021,2020.1.3,Win32,60,60462d2f8138f40887a79fc4,,,,,,,,,,,,k,2.830915
