consent_key.keys,consent_key.rt,intro_key_2.keys,intro_key_2.rt,key_resp_4.keys,key_resp_4.rt,key_resp_5.keys,key_resp_5.rt,key_resp_6.keys,key_resp_6.rt,key_resp_7.keys,key_resp_7.rt,keyTraining.keys,keyTraining.corr,keyTraining.rt,practiceloop.thisRepN,practiceloop.thisTrialN,practiceloop.thisN,practiceloop.thisIndex,practiceloop.ran,s11,s1_1,s12,s22,s13,s23,s33,s14,s24,s34,s44,s15,s25,s35,s45,s55,t11,t1_1,t12,t22,t13,t23,t33,t14,t24,t34,t44,t15,t25,t35,t45,t55,corrans,study,o11,o1_1,o12,o22,o13,o23,o33,o14,o24,o34,o44,o15,o25,o35,o45,o55,ot11,ot1_1,ot12,ot22,ot13,ot23,ot33,ot14,ot24,ot34,ot44,ot15,ot25,ot35,ot45,ot55,participant,session,date,expName,psychopyVersion,OS,frameRate,STUDY_ID,key_resp_2.keys,key_resp_2.rt,key_resp.keys,key_resp.corr,key_resp.rt,testloop.thisRepN,testloop.thisTrialN,testloop.thisN,testloop.thisIndex,testloop.ran,setsize,key_resp_3.keys,key_resp_3.rt
y,274.524095,space,45.32088,space,12.582915,s,13.12655,d,8.630585,space,15.182165,s,1,1.29797,0,0,0,0,1,images/06impossible.bmp,,,,,,,,,,,,,,,,images/06impossible.bmp,,,,,,,,,,,,,,,,s,,0,0,288,216,144,72,0,288,216,144,72,0,288,216,144,72,0,0,288,216,144,72,0,288,216,144,72,0,288,216,144,72,60401d29ac48a7206efa723b,60464aa337e6200dda73e714,2021-03-08_17h03.22.842,Impossible2021,2020.1.3,Win32,60,60462d2f8138f40887a79fc4,,,,,,,,,,,,,
,,,,,,,,,,,,d,1,1.1062,0,1,1,1,1,,images/06impossible.bmp,,,,,,,,,,,,,,,,images/06impossible.bmp,,,,,,,,,,,,,,,d,,216,216,144,72,0,288,216,144,72,0,288,216,144,72,0,288,144,144,72,0,288,216,144,72,0,288,216,144,72,0,288,216,60401d29ac48a7206efa723b,60464aa337e6200dda73e714,2021-03-08_17h03.22.842,Impossible2021,2020.1.3,Win32,60,60462d2f8138f40887a79fc4,,,,,,,,,,,,,
,,,,,,,,,,,,s,1,3.17815,0,2,2,2,1,,,images/06impossible.bmp,images/06impossible.bmp,,,,,,,,,,,,,,,,images/06impossible.bmp,,,,,,,,,,,,,s,,288,288,216,144,72,0,288,216,144,72,0,288,216,144,72,0,288,288,216,144,72,0,288,216,144,72,0,288,216,144,72,0,60401d29ac48a7206efa723b,60464aa337e6200dda73e714,2021-03-08_17h03.22.842,Impossible2021,2020.1.3,Win32,60,60462d2f8138f40887a79fc4,,,,,,,,,,,,,
,,,,,,,,,,,,d,1,1.305445,0,3,3,3,1,,,images/06impossible.bmp,images/06impossible.bmp,,,,,,,,,,,,,,,images/06impossible.bmp,,,,,,,,,,,,,,d,,144,144,72,0,288,216,144,72,0,288,216,144,72,0,288,216,72,72,0,288,216,144,72,0,288,216,144,72,0,288,216,144,60401d29ac48a7206efa723b,60464aa337e6200dda73e714,2021-03-08_17h03.22.842,Impossible2021,2020.1.3,Win32,60,60462d2f8138f40887a79fc4,,,,,,,,,,,,,
,,,,,,,,,,,,d,0,1.422615,0,4,4,4,1,,,,,images/06impossible.bmp,images/06impossible.bmp,images/06impossible.bmp,,,,,,,,,,,,,,images/06impossible.bmp,,,,,,,,,,,,s,,216,216,144,72,0,288,216,144,72,0,288,216,144,72,0,288,216,216,144,72,0,288,216,144,72,0,288,216,144,72,0,288,60401d29ac48a7206efa723b,60464aa337e6200dda73e714,2021-03-08_17h03.22.842,Impossible2021,2020.1.3,Win32,60,60462d2f8138f40887a79fc4,,,,,,,,,,,,,
,,,,,,,,,,,,d,1,1.855415,0,5,5,5,1,,,,,images/06impossible.bmp,images/06impossible.bmp,images/06impossible.bmp,,,,,,,,,,,,,,,,images/06impossible.bmp,,,,,,,,,,d,,216,216,144,72,0,288,216,144,72,0,288,216,144,72,0,288,144,144,72,0,288,216,144,72,0,288,216,144,72,0,288,216,60401d29ac48a7206efa723b,60464aa337e6200dda73e714,2021-03-08_17h03.22.842,Impossible2021,2020.1.3,Win32,60,60462d2f8138f40887a79fc4,,,,,,,,,,,,,
,,,,,,,,,,,,,,,,,,,,,images/05impossible.bmp,,,,,,,,,,,,,,,,images/05impossible.bmp,,,,,,,,,,,,,,,d,impossible,216,216,144,72,0,288,216,144,72,0,288,216,144,72,0,288,144,144,72,0,288,216,144,72,0,288,216,144,72,0,288,216,60401d29ac48a7206efa723b,60464aa337e6200dda73e714,2021-03-08_17h03.22.842,Impossible2021,2020.1.3,Win32,60,60462d2f8138f40887a79fc4,space,17.273395,d,1,1.168495,0,0,0,7,1,1,,
,,,,,,,,,,,,,,,,,,,,,,,,images/05impossible.bmp,images/05impossible.bmp,images/05impossible.bmp,,,,,,,,,,,,,,,,images/05impossible.bmp,,,,,,,,,,s,impossible,216,216,144,72,0,288,216,144,72,0,288,216,144,72,0,288,216,216,144,72,0,288,216,144,72,0,288,216,144,72,0,288,60401d29ac48a7206efa723b,60464aa337e6200dda73e714,2021-03-08_17h03.22.842,Impossible2021,2020.1.3,Win32,60,60462d2f8138f40887a79fc4,,,,0,,0,1,1,49,1,3,,
,,,,,,,,,,,,,,,,,,,,,,,,,,,,,,,images/05impossible.bmp,images/05impossible.bmp,images/05impossible.bmp,images/05impossible.bmp,images/05impossible.bmp,,,,,,,,,,,,,,images/05impossible.bmp,,,d,impossible,216,216,144,72,0,288,216,144,72,0,288,216,144,72,0,288,144,144,72,0,288,216,144,72,0,288,216,144,72,0,288,216,60401d29ac48a7206efa723b,60464aa337e6200dda73e714,2021-03-08_17h03.22.842,Impossible2021,2020.1.3,Win32,60,60462d2f8138f40887a79fc4,,,s,0,2.87181,0,2,2,103,1,5,,
,,,,,,,,,,,,,,,,,,,,,,,,,,,images/69impossible.bmp,images/69impossible.bmp,images/69impossible.bmp,images/69impossible.bmp,,,,,,,,,,,,,,,,images/69impossible.bmp,,,,,,s,impossible,216,216,144,72,0,288,216,144,72,0,288,216,144,72,0,288,216,216,144,72,0,288,216,144,72,0,288,216,144,72,0,288,60401d29ac48a7206efa723b,60464aa337e6200dda73e714,2021-03-08_17h03.22.842,Impossible2021,2020.1.3,Win32,60,60462d2f8138f40887a79fc4,,,s,1,1.22896,0,3,3,89,1,4,,
,,,,,,,,,,,,,,,,,,,,,,images/08possible.bmp,images/08possible.bmp,,,,,,,,,,,,,,,images/08possible.bmp,,,,,,,,,,,,,,s,possible,288,288,216,144,72,0,288,216,144,72,0,288,216,144,72,0,288,288,216,144,72,0,288,216,144,72,0,288,216,144,72,0,60401d29ac48a7206efa723b,60464aa337e6200dda73e714,2021-03-08_17h03.22.842,Impossible2021,2020.1.3,Win32,60,60462d2f8138f40887a79fc4,,,s,1,0.77795,0,4,4,26,1,2,,
,,,,,,,,,,,,,,,,,,,,,,,,,,,images/05possible.bmp,images/05possible.bmp,images/05possible.bmp,images/05possible.bmp,,,,,,,,,,,,,,,images/05possible.bmp,,,,,,,d,possible,216,216,144,72,0,288,216,144,72,0,288,216,144,72,0,288,144,144,72,0,288,216,144,72,0,288,216,144,72,0,288,216,60401d29ac48a7206efa723b,60464aa337e6200dda73e714,2021-03-08_17h03.22.842,Impossible2021,2020.1.3,Win32,60,60462d2f8138f40887a79fc4,,,s,0,2.030755,0,5,5,79,1,4,,
,,,,,,,,,,,,,,,,,,,,,,images/42impossible.bmp,images/42impossible.bmp,,,,,,,,,,,,,,,,images/42impossible.bmp,,,,,,,,,,,,,d,impossible,144,144,72,0,288,216,144,72,0,288,216,144,72,0,288,216,72,72,0,288,216,144,72,0,288,216,144,72,0,288,216,144,60401d29ac48a7206efa723b,60464aa337e6200dda73e714,2021-03-08_17h03.22.842,Impossible2021,2020.1.3,Win32,60,60462d2f8138f40887a79fc4,,,d,1,1.2584,0,6,6,43,1,2,,
,,,,,,,,,,,,,,,,,,,,,,,,,,,,,,,images/42possible.bmp,images/42possible.bmp,images/42possible.bmp,images/42possible.bmp,images/42possible.bmp,,,,,,,,,,,,,,,images/42possible.bmp,,d,possible,144,144,72,0,288,216,144,72,0,288,216,144,72,0,288,216,72,72,0,288,216,144,72,0,288,216,144,72,0,288,216,144,60401d29ac48a7206efa723b,60464aa337e6200dda73e714,2021-03-08_17h03.22.842,Impossible2021,2020.1.3,Win32,60,60462d2f8138f40887a79fc4,,,d,1,1.608575,0,7,7,115,1,5,,
,,,,,,,,,,,,,,,,,,,,,,,,,,,,,,,images/22impossible.bmp,images/22impossible.bmp,images/22impossible.bmp,images/22impossible.bmp,images/22impossible.bmp,,,,,,,,,,,,,images/22impossible.bmp,,,,s,impossible,216,216,144,72,0,288,216,144,72,0,288,216,144,72,0,288,216,216,144,72,0,288,216,144,72,0,288,216,144,72,0,288,60401d29ac48a7206efa723b,60464aa337e6200dda73e714,2021-03-08_17h03.22.842,Impossible2021,2020.1.3,Win32,60,60462d2f8138f40887a79fc4,,,s,1,1.158975,0,8,8,99,1,5,,
,,,,,,,,,,,,,,,,,,,,,images/42possible.bmp,,,,,,,,,,,,,,,,images/42possible.bmp,,,,,,,,,,,,,,,s,possible,144,144,72,0,288,216,144,72,0,288,216,144,72,0,288,216,144,144,72,0,288,216,144,72,0,288,216,144,72,0,288,216,60401d29ac48a7206efa723b,60464aa337e6200dda73e714,2021-03-08_17h03.22.842,Impossible2021,2020.1.3,Win32,60,60462d2f8138f40887a79fc4,,,s,1,1.310035,0,9,9,13,1,1,,
,,,,,,,,,,,,,,,,,,,,,,,,,,,images/08possible.bmp,images/08possible.bmp,images/08possible.bmp,images/08possible.bmp,,,,,,,,,,,,,images/08possible.bmp,,,,,,,,,d,possible,288,288,216,144,72,0,288,216,144,72,0,288,216,144,72,0,216,216,144,72,0,288,216,144,72,0,288,216,144,72,0,288,60401d29ac48a7206efa723b,60464aa337e6200dda73e714,2021-03-08_17h03.22.842,Impossible2021,2020.1.3,Win32,60,60462d2f8138f40887a79fc4,,,s,0,0.908555,0,10,10,80,1,4,,
,,,,,,,,,,,,,,,,,,,,,,,,images/05impossible.bmp,images/05impossible.bmp,images/05impossible.bmp,,,,,,,,,,,,,,,,images/05impossible.bmp,,,,,,,,,,d,impossible,216,216,144,72,0,288,216,144,72,0,288,216,144,72,0,288,144,144,72,0,288,216,144,72,0,288,216,144,72,0,288,216,60401d29ac48a7206efa723b,60464aa337e6200dda73e714,2021-03-08_17h03.22.842,Impossible2021,2020.1.3,Win32,60,60462d2f8138f40887a79fc4,,,d,1,1.73168,0,11,11,55,1,3,,
,,,,,,,,,,,,,,,,,,,,,,images/03possible.bmp,images/03possible.bmp,,,,,,,,,,,,,,,images/03possible.bmp,,,,,,,,,,,,,,d,possible,72,72,0,288,216,144,72,0,288,216,144,72,0,288,216,144,0,0,288,216,144,72,0,288,216,144,72,0,288,216,144,72,60401d29ac48a7206efa723b,60464aa337e6200dda73e714,2021-03-08_17h03.22.842,Impossible2021,2020.1.3,Win32,60,60462d2f8138f40887a79fc4,,,s,0,1.06582,0,12,12,30,1,2,,
,,,,,,,,,,,,,,,,,,,,,,images/65impossible.bmp,images/65impossible.bmp,,,,,,,,,,,,,,,images/65impossible.bmp,,,,,,,,,,,,,,d,impossible,144,144,72,0,288,216,144,72,0,288,216,144,72,0,288,216,72,72,0,288,216,144,72,0,288,216,144,72,0,288,216,144,60401d29ac48a7206efa723b,60464aa337e6200dda73e714,2021-03-08_17h03.22.842,Impossible2021,2020.1.3,Win32,60,60462d2f8138f40887a79fc4,,,s,0,1.07489,0,13,13,46,1,2,,
,,,,,,,,,,,,,,,,,,,,,,,,,,,,,,,images/65possible.bmp,images/65possible.bmp,images/65possible.bmp,images/65possible.bmp,images/65possible.bmp,,,,,,,,,,,,,,,images/65possible.bmp,,s,possible,144,144,72,0,288,216,144,72,0,288,216,144,72,0,288,216,144,144,72,0,288,216,144,72,0,288,216,144,72,0,288,216,60401d29ac48a7206efa723b,60464aa337e6200dda73e714,2021-03-08_17h03.22.842,Impossible2021,2020.1.3,Win32,60,60462d2f8138f40887a79fc4,,,d,0,1.862235,0,14,14,112,1,5,,
,,,,,,,,,,,,,,,,,,,,,,images/22possible.bmp,images/22possible.bmp,,,,,,,,,,,,,,,,images/22possible.bmp,,,,,,,,,,,,,d,possible,216,216,144,72,0,288,216,144,72,0,288,216,144,72,0,288,144,144,72,0,288,216,144,72,0,288,216,144,72,0,288,216,60401d29ac48a7206efa723b,60464aa337e6200dda73e714,2021-03-08_17h03.22.842,Impossible2021,2020.1.3,Win32,60,60462d2f8138f40887a79fc4,,,d,1,1.222705,0,15,15,33,1,2,,
,,,,,,,,,,,,,,,,,,,,,images/44possible.bmp,,,,,,,,,,,,,,,,images/44possible.bmp,,,,,,,,,,,,,,,d,possible,216,216,144,72,0,288,216,144,72,0,288,216,144,72,0,288,144,144,72,0,288,216,144,72,0,288,216,144,72,0,288,216,60401d29ac48a7206efa723b,60464aa337e6200dda73e714,2021-03-08_17h03.22.842,Impossible2021,2020.1.3,Win32,60,60462d2f8138f40887a79fc4,,,s,0,2.500085,0,16,16,20,1,1,,
,,,,,,,,,,,,,,,,,,,,,,,,,,,images/69impossible.bmp,images/69impossible.bmp,images/69impossible.bmp,images/69impossible.bmp,,,,,,,,,,,,,,images/69impossible.bmp,,,,,,,,d,impossible,216,216,144,72,0,288,216,144,72,0,288,216,144,72,0,288,144,144,72,0,288,216,144,72,0,288,216,144,72,0,288,216,60401d29ac48a7206efa723b,60464aa337e6200dda73e714,2021-03-08_17h03.22.842,Impossible2021,2020.1.3,Win32,60,60462d2f8138f40887a79fc4,,,s,0,1.323135,0,17,17,95,1,4,,
,,,,,,,,,,,,,,,,,,,,,,images/65impossible.bmp,images/65impossible.bmp,,,,,,,,,,,,,,,images/65impossible.bmp,,,,,,,,,,,,,,s,impossible,144,144,72,0,288,216,144,72,0,288,216,144,72,0,288,216,144,144,72,0,288,216,144,72,0,288,216,144,72,0,288,216,60401d29ac48a7206efa723b,60464aa337e6200dda73e714,2021-03-08_17h03.22.842,Impossible2021,2020.1.3,Win32,60,60462d2f8138f40887a79fc4,,,s,1,0.80709,0,18,18,40,1,2,,
,,,,,,,,,,,,,,,,,,,,,,images/24possible.bmp,images/24possible.bmp,,,,,,,,,,,,,,,images/24possible.bmp,,,,,,,,,,,,,,s,possible,0,0,288,216,144,72,0,288,216,144,72,0,288,216,144,72,0,0,288,216,144,72,0,288,216,144,72,0,288,216,144,72,60401d29ac48a7206efa723b,60464aa337e6200dda73e714,2021-03-08_17h03.22.842,Impossible2021,2020.1.3,Win32,60,60462d2f8138f40887a79fc4,,,s,1,0.90319,0,19,19,28,1,2,,
,,,,,,,,,,,,,,,,,,,,,,images/05possible.bmp,images/05possible.bmp,,,,,,,,,,,,,,,,images/05possible.bmp,,,,,,,,,,,,,d,possible,216,216,144,72,0,288,216,144,72,0,288,216,144,72,0,288,144,144,72,0,288,216,144,72,0,288,216,144,72,0,288,216,60401d29ac48a7206efa723b,60464aa337e6200dda73e714,2021-03-08_17h03.22.842,Impossible2021,2020.1.3,Win32,60,60462d2f8138f40887a79fc4,,,d,1,0.88975,0,20,20,31,1,2,,
,,,,,,,,,,,,,,,,,,,,,,,,images/65possible.bmp,images/65possible.bmp,images/65possible.bmp,,,,,,,,,,,,,,images/65possible.bmp,,,,,,,,,,,,d,possible,144,144,72,0,288,216,144,72,0,288,216,144,72,0,288,216,72,72,0,288,216,144,72,0,288,216,144,72,0,288,216,144,60401d29ac48a7206efa723b,60464aa337e6200dda73e714,2021-03-08_17h03.22.842,Impossible2021,2020.1.3,Win32,60,60462d2f8138f40887a79fc4,,,s,0,1.323,0,21,21,70,1,3,,
,,,,,,,,,,,,,,,,,,,,,,,,,,,images/25possible.bmp,images/25possible.bmp,images/25possible.bmp,images/25possible.bmp,,,,,,,,,,,,,,images/25possible.bmp,,,,,,,,d,possible,72,72,0,288,216,144,72,0,288,216,144,72,0,288,216,144,0,0,288,216,144,72,0,288,216,144,72,0,288,216,144,72,60401d29ac48a7206efa723b,60464aa337e6200dda73e714,2021-03-08_17h03.22.842,Impossible2021,2020.1.3,Win32,60,60462d2f8138f40887a79fc4,,,d,1,1.798285,0,22,22,83,1,4,,
,,,,,,,,,,,,,,,,,,,,,,,,images/03impossible.bmp,images/03impossible.bmp,images/03impossible.bmp,,,,,,,,,,,,,,,images/03impossible.bmp,,,,,,,,,,,d,impossible,72,72,0,288,216,144,72,0,288,216,144,72,0,288,216,144,0,0,288,216,144,72,0,288,216,144,72,0,288,216,144,72,60401d29ac48a7206efa723b,60464aa337e6200dda73e714,2021-03-08_17h03.22.842,Impossible2021,2020.1.3,Win32,60,60462d2f8138f40887a79fc4,,,s,0,0.814835,0,23,23,54,1,3,,
,,,,,,,,,,,,,,,,,,,,,,,,,,,,,,,images/44possible.bmp,images/44possible.bmp,images/44possible.bmp,images/44possible.bmp,images/44possible.bmp,,,,,,,,,,,,,,images/44possible.bmp,,,d,possible,216,216,144,72,0,288,216,144,72,0,288,216,144,72,0,288,144,144,72,0,288,216,144,72,0,288,216,144,72,0,288,216,60401d29ac48a7206efa723b,60464aa337e6200dda73e714,2021-03-08_17h03.22.842,Impossible2021,2020.1.3,Win32,60,60462d2f8138f40887a79fc4,,,s,0,0.90171,0,24,24,116,1,5,,
,,,,,,,,,,,,,,,,,,,,,,,,images/08impossible.bmp,images/08impossible.bmp,images/08impossible.bmp,,,,,,,,,,,,,,,images/08impossible.bmp,,,,,,,,,,,s,impossible,288,288,216,144,72,0,288,216,144,72,0,288,216,144,72,0,288,288,216,144,72,0,288,216,144,72,0,288,216,144,72,0,60401d29ac48a7206efa723b,60464aa337e6200dda73e714,2021-03-08_17h03.22.842,Impossible2021,2020.1.3,Win32,60,60462d2f8138f40887a79fc4,,,s,1,0.730935,0,25,25,50,1,3,,
,,,,,,,,,,,,,,,,,,,,,images/03impossible.bmp,,,,,,,,,,,,,,,,images/03impossible.bmp,,,,,,,,,,,,,,,d,impossible,72,72,0,288,216,144,72,0,288,216,144,72,0,288,216,144,0,0,288,216,144,72,0,288,216,144,72,0,288,216,144,72,60401d29ac48a7206efa723b,60464aa337e6200dda73e714,2021-03-08_17h03.22.842,Impossible2021,2020.1.3,Win32,60,60462d2f8138f40887a79fc4,,,d,1,0.87621,0,26,26,6,1,1,,
,,,,,,,,,,,,,,,,,,,,,,,,images/44possible.bmp,images/44possible.bmp,images/44possible.bmp,,,,,,,,,,,,,,images/44possible.bmp,,,,,,,,,,,,d,possible,216,216,144,72,0,288,216,144,72,0,288,216,144,72,0,288,144,144,72,0,288,216,144,72,0,288,216,144,72,0,288,216,60401d29ac48a7206efa723b,60464aa337e6200dda73e714,2021-03-08_17h03.22.842,Impossible2021,2020.1.3,Win32,60,60462d2f8138f40887a79fc4,,,d,1,1.34765,0,27,27,68,1,3,,
,,,,,,,,,,,,,,,,,,,,,images/24impossible.bmp,,,,,,,,,,,,,,,,images/24impossible.bmp,,,,,,,,,,,,,,,s,impossible,0,0,288,216,144,72,0,288,216,144,72,0,288,216,144,72,0,0,288,216,144,72,0,288,216,144,72,0,288,216,144,72,60401d29ac48a7206efa723b,60464aa337e6200dda73e714,2021-03-08_17h03.22.842,Impossible2021,2020.1.3,Win32,60,60462d2f8138f40887a79fc4,,,s,1,0.52187,0,28,28,4,1,1,,
,,,,,,,,,,,,,,,,,,,,,,,,,,,,,,,images/03impossible.bmp,images/03impossible.bmp,images/03impossible.bmp,images/03impossible.bmp,images/03impossible.bmp,,,,,,,,,,,,,,,,images/03impossible.bmp,d,impossible,72,72,0,288,216,144,72,0,288,216,144,72,0,288,216,144,0,0,288,216,144,72,0,288,216,144,72,0,288,216,144,72,60401d29ac48a7206efa723b,60464aa337e6200dda73e714,2021-03-08_17h03.22.842,Impossible2021,2020.1.3,Win32,60,60462d2f8138f40887a79fc4,,,d,1,1.29049,0,29,29,102,1,5,,
,,,,,,,,,,,,,,,,,,,,,,,,images/69possible.bmp,images/69possible.bmp,images/69possible.bmp,,,,,,,,,,,,,,images/69possible.bmp,,,,,,,,,,,,d,possible,216,216,144,72,0,288,216,144,72,0,288,216,144,72,0,288,144,144,72,0,288,216,144,72,0,288,216,144,72,0,288,216,60401d29ac48a7206efa723b,60464aa337e6200dda73e714,2021-03-08_17h03.22.842,Impossible2021,2020.1.3,Win32,60,60462d2f8138f40887a79fc4,,,s,0,1.40714,0,30,30,71,1,3,,
,,,,,,,,,,,,,,,,,,,,images/03impossible.bmp,,,,,,,,,,,,,,,,images/03impossible.bmp,,,,,,,,,,,,,,,,s,impossible,72,72,0,288,216,144,72,0,288,216,144,72,0,288,216,144,72,72,0,288,216,144,72,0,288,216,144,72,0,288,216,144,60401d29ac48a7206efa723b,60464aa337e6200dda73e714,2021-03-08_17h03.22.842,Impossible2021,2020.1.3,Win32,60,60462d2f8138f40887a79fc4,,,s,1,0.708335,0,31,31,0,1,1,,
,,,,,,,,,,,,,,,,,,,,,,,,images/24impossible.bmp,images/24impossible.bmp,images/24impossible.bmp,,,,,,,,,,,,,,,images/24impossible.bmp,,,,,,,,,,,s,impossible,0,0,288,216,144,72,0,288,216,144,72,0,288,216,144,72,0,0,288,216,144,72,0,288,216,144,72,0,288,216,144,72,60401d29ac48a7206efa723b,60464aa337e6200dda73e714,2021-03-08_17h03.22.842,Impossible2021,2020.1.3,Win32,60,60462d2f8138f40887a79fc4,,,d,0,1.22189,0,32,32,52,1,3,,
,,,,,,,,,,,,,,,,,,,,,,,,,,,images/03possible.bmp,images/03possible.bmp,images/03possible.bmp,images/03possible.bmp,,,,,,,,,,,,,,images/03possible.bmp,,,,,,,,s,possible,72,72,0,288,216,144,72,0,288,216,144,72,0,288,216,144,72,72,0,288,216,144,72,0,288,216,144,72,0,288,216,144,60401d29ac48a7206efa723b,60464aa337e6200dda73e714,2021-03-08_17h03.22.842,Impossible2021,2020.1.3,Win32,60,60462d2f8138f40887a79fc4,,,s,1,0.70336,0,33,33,72,1,4,,
,,,,,,,,,,,,,,,,,,,,,,,,,,,,,,,images/42possible.bmp,images/42possible.bmp,images/42possible.bmp,images/42possible.bmp,images/42possible.bmp,,,,,,,,,,,,,images/42possible.bmp,,,,s,possible,144,144,72,0,288,216,144,72,0,288,216,144,72,0,288,216,144,144,72,0,288,216,144,72,0,288,216,144,72,0,288,216,60401d29ac48a7206efa723b,60464aa337e6200dda73e714,2021-03-08_17h03.22.842,Impossible2021,2020.1.3,Win32,60,60462d2f8138f40887a79fc4,,,d,0,1.666995,0,34,34,109,1,5,,
,,,,,,,,,,,,,,,,,,,,,,images/38impossible.bmp,images/38impossible.bmp,,,,,,,,,,,,,,,images/38impossible.bmp,,,,,,,,,,,,,,s,impossible,72,72,0,288,216,144,72,0,288,216,144,72,0,288,216,144,72,72,0,288,216,144,72,0,288,216,144,72,0,288,216,144,60401d29ac48a7206efa723b,60464aa337e6200dda73e714,2021-03-08_17h03.22.842,Impossible2021,2020.1.3,Win32,60,60462d2f8138f40887a79fc4,,,s,1,0.90779,0,35,35,36,1,2,,
,,,,,,,,,,,,,,,,,,,,,,,,images/25impossible.bmp,images/25impossible.bmp,images/25impossible.bmp,,,,,,,,,,,,,,images/25impossible.bmp,,,,,,,,,,,,s,impossible,72,72,0,288,216,144,72,0,288,216,144,72,0,288,216,144,72,72,0,288,216,144,72,0,288,216,144,72,0,288,216,144,60401d29ac48a7206efa723b,60464aa337e6200dda73e714,2021-03-08_17h03.22.842,Impossible2021,2020.1.3,Win32,60,60462d2f8138f40887a79fc4,,,d,0,1.77297,0,36,36,53,1,3,,
,,,,,,,,,,,,,,,,,,,,,,,,images/42possible.bmp,images/42possible.bmp,images/42possible.bmp,,,,,,,,,,,,,,,,images/42possible.bmp,,,,,,,,,,s,possible,144,144,72,0,288,216,144,72,0,288,216,144,72,0,288,216,144,144,72,0,288,216,144,72,0,288,216,144,72,0,288,216,60401d29ac48a7206efa723b,60464aa337e6200dda73e714,2021-03-08_17h03.22.842,Impossible2021,2020.1.3,Win32,60,60462d2f8138f40887a79fc4,,,s,1,0.63957,0,37,37,61,1,3,,
,,,,,,,,,,,,,,,,,,,,,,images/03possible.bmp,images/03possible.bmp,,,,,,,,,,,,,,,images/03possible.bmp,,,,,,,,,,,,,,s,possible,72,72,0,288,216,144,72,0,288,216,144,72,0,288,216,144,72,72,0,288,216,144,72,0,288,216,144,72,0,288,216,144,60401d29ac48a7206efa723b,60464aa337e6200dda73e714,2021-03-08_17h03.22.842,Impossible2021,2020.1.3,Win32,60,60462d2f8138f40887a79fc4,,,s,1,0.72152,0,38,38,24,1,2,,
,,,,,,,,,,,,,,,,,,,,,,,,,,,images/44impossible.bmp,images/44impossible.bmp,images/44impossible.bmp,images/44impossible.bmp,,,,,,,,,,,,,images/44impossible.bmp,,,,,,,,,d,impossible,216,216,144,72,0,288,216,144,72,0,288,216,144,72,0,288,144,144,72,0,288,216,144,72,0,288,216,144,72,0,288,216,60401d29ac48a7206efa723b,60464aa337e6200dda73e714,2021-03-08_17h03.22.842,Impossible2021,2020.1.3,Win32,60,60462d2f8138f40887a79fc4,,,s,0,0.80017,0,39,39,92,1,4,,
,,,,,,,,,,,,,,,,,,,,,images/55possible.bmp,,,,,,,,,,,,,,,,images/55possible.bmp,,,,,,,,,,,,,,,s,possible,72,72,0,288,216,144,72,0,288,216,144,72,0,288,216,144,72,72,0,288,216,144,72,0,288,216,144,72,0,288,216,144,60401d29ac48a7206efa723b,60464aa337e6200dda73e714,2021-03-08_17h03.22.842,Impossible2021,2020.1.3,Win32,60,60462d2f8138f40887a79fc4,,,s,1,0.63875,0,40,40,15,1,1,,
,,,,,,,,,,,,,,,,,,,,images/24impossible.bmp,,,,,,,,,,,,,,,,images/24impossible.bmp,,,,,,,,,,,,,,,,d,impossible,0,0,288,216,144,72,0,288,216,144,72,0,288,216,144,72,288,288,216,144,72,0,288,216,144,72,0,288,216,144,72,0,60401d29ac48a7206efa723b,60464aa337e6200dda73e714,2021-03-08_17h03.22.842,Impossible2021,2020.1.3,Win32,60,60462d2f8138f40887a79fc4,,,d,1,0.83988,0,41,41,10,1,1,,
,,,,,,,,,,,,,,,,,,,,,,images/25possible.bmp,images/25possible.bmp,,,,,,,,,,,,,,,,images/25possible.bmp,,,,,,,,,,,,,s,possible,72,72,0,288,216,144,72,0,288,216,144,72,0,288,216,144,72,72,0,288,216,144,72,0,288,216,144,72,0,288,216,144,60401d29ac48a7206efa723b,60464aa337e6200dda73e714,2021-03-08_17h03.22.842,Impossible2021,2020.1.3,Win32,60,60462d2f8138f40887a79fc4,,,s,1,1.314865,0,42,42,29,1,2,,
,,,,,,,,,,,,,,,,,,,,images/42possible.bmp,,,,,,,,,,,,,,,,images/42possible.bmp,,,,,,,,,,,,,,,,d,possible,144,144,72,0,288,216,144,72,0,288,216,144,72,0,288,216,72,72,0,288,216,144,72,0,288,216,144,72,0,288,216,144,60401d29ac48a7206efa723b,60464aa337e6200dda73e714,2021-03-08_17h03.22.842,Impossible2021,2020.1.3,Win32,60,60462d2f8138f40887a79fc4,,,d,1,0.74627,0,43,43,19,1,1,,
,,,,,,,,,,,,,,,,,,,,,,,,,,,images/24possible.bmp,images/24possible.bmp,images/24possible.bmp,images/24possible.bmp,,,,,,,,,,,,,,,,images/24possible.bmp,,,,,,d,possible,0,0,288,216,144,72,0,288,216,144,72,0,288,216,144,72,288,288,216,144,72,0,288,216,144,72,0,288,216,144,72,0,60401d29ac48a7206efa723b,60464aa337e6200dda73e714,2021-03-08_17h03.22.842,Impossible2021,2020.1.3,Win32,60,60462d2f8138f40887a79fc4,,,s,0,1.2231,0,44,44,82,1,4,,
,,,,,,,,,,,,,,,,,,,,,,images/69impossible.bmp,images/69impossible.bmp,,,,,,,,,,,,,,,,images/69impossible.bmp,,,,,,,,,,,,,d,impossible,216,216,144,72,0,288,216,144,72,0,288,216,144,72,0,288,144,144,72,0,288,216,144,72,0,288,216,144,72,0,288,216,60401d29ac48a7206efa723b,60464aa337e6200dda73e714,2021-03-08_17h03.22.842,Impossible2021,2020.1.3,Win32,60,60462d2f8138f40887a79fc4,,,d,1,1.157775,0,45,45,47,1,2,,
,,,,,,,,,,,,,,,,,,,,,,,,,,,,,,,images/08impossible.bmp,images/08impossible.bmp,images/08impossible.bmp,images/08impossible.bmp,images/08impossible.bmp,,,,,,,,,,,,,,,,images/08impossible.bmp,s,impossible,288,288,216,144,72,0,288,216,144,72,0,288,216,144,72,0,288,288,216,144,72,0,288,216,144,72,0,288,216,144,72,0,60401d29ac48a7206efa723b,60464aa337e6200dda73e714,2021-03-08_17h03.22.842,Impossible2021,2020.1.3,Win32,60,60462d2f8138f40887a79fc4,,,s,1,1.38261,0,46,46,98,1,5,,
,,,,,,,,,,,,,,,,,,,,,,,,,,,images/55impossible.bmp,images/55impossible.bmp,images/55impossible.bmp,images/55impossible.bmp,,,,,,,,,,,,,,images/55impossible.bmp,,,,,,,,s,impossible,72,72,0,288,216,144,72,0,288,216,144,72,0,288,216,144,72,72,0,288,216,144,72,0,288,216,144,72,0,288,216,144,60401d29ac48a7206efa723b,60464aa337e6200dda73e714,2021-03-08_17h03.22.842,Impossible2021,2020.1.3,Win32,60,60462d2f8138f40887a79fc4,,,s,1,0.656535,0,47,47,87,1,4,,
,,,,,,,,,,,,,,,,,,,,,,images/55impossible.bmp,images/55impossible.bmp,,,,,,,,,,,,,,,,images/55impossible.bmp,,,,,,,,,,,,,d,impossible,72,72,0,288,216,144,72,0,288,216,144,72,0,288,216,144,0,0,288,216,144,72,0,288,216,144,72,0,288,216,144,72,60401d29ac48a7206efa723b,60464aa337e6200dda73e714,2021-03-08_17h03.22.842,Impossible2021,2020.1.3,Win32,60,60462d2f8138f40887a79fc4,,,d,1,1.13768,0,48,48,45,1,2,,
,,,,,,,,,,,,,,,,,,,,,,,,images/65possible.bmp,images/65possible.bmp,images/65possible.bmp,,,,,,,,,,,,,,,images/65possible.bmp,,,,,,,,,,,s,possible,144,144,72,0,288,216,144,72,0,288,216,144,72,0,288,216,144,144,72,0,288,216,144,72,0,288,216,144,72,0,288,216,60401d29ac48a7206efa723b,60464aa337e6200dda73e714,2021-03-08_17h03.22.842,Impossible2021,2020.1.3,Win32,60,60462d2f8138f40887a79fc4,,,s,1,0.92718,0,49,49,64,1,3,,
,,,,,,,,,,,,,,,,,,,,,,,,,,,images/22possible.bmp,images/22possible.bmp,images/22possible.bmp,images/22possible.bmp,,,,,,,,,,,,,,,images/22possible.bmp,,,,,,,d,possible,216,216,144,72,0,288,216,144,72,0,288,216,144,72,0,288,144,144,72,0,288,216,144,72,0,288,216,144,72,0,288,216,60401d29ac48a7206efa723b,60464aa337e6200dda73e714,2021-03-08_17h03.22.842,Impossible2021,2020.1.3,Win32,60,60462d2f8138f40887a79fc4,,,s,0,1.05946,0,50,50,81,1,4,,
,,,,,,,,,,,,,,,,,,,,,,,,images/22impossible.bmp,images/22impossible.bmp,images/22impossible.bmp,,,,,,,,,,,,,,,,images/22impossible.bmp,,,,,,,,,,s,impossible,216,216,144,72,0,288,216,144,72,0,288,216,144,72,0,288,216,216,144,72,0,288,216,144,72,0,288,216,144,72,0,288,60401d29ac48a7206efa723b,60464aa337e6200dda73e714,2021-03-08_17h03.22.842,Impossible2021,2020.1.3,Win32,60,60462d2f8138f40887a79fc4,,,s,1,0.77794,0,51,51,51,1,3,,
,,,,,,,,,,,,,,,,,,,,,,,,,,,,,,,images/55possible.bmp,images/55possible.bmp,images/55possible.bmp,images/55possible.bmp,images/55possible.bmp,,,,,,,,,,,,,,,,images/55possible.bmp,s,possible,72,72,0,288,216,144,72,0,288,216,144,72,0,288,216,144,72,72,0,288,216,144,72,0,288,216,144,72,0,288,216,144,60401d29ac48a7206efa723b,60464aa337e6200dda73e714,2021-03-08_17h03.22.842,Impossible2021,2020.1.3,Win32,60,60462d2f8138f40887a79fc4,,,d,0,1.522605,0,52,52,111,1,5,,
,,,,,,,,,,,,,,,,,,,,,,images/25possible.bmp,images/25possible.bmp,,,,,,,,,,,,,,,,images/25possible.bmp,,,,,,,,,,,,,d,possible,72,72,0,288,216,144,72,0,288,216,144,72,0,288,216,144,0,0,288,216,144,72,0,288,216,144,72,0,288,216,144,72,60401d29ac48a7206efa723b,60464aa337e6200dda73e714,2021-03-08_17h03.22.842,Impossible2021,2020.1.3,Win32,60,60462d2f8138f40887a79fc4,,,d,1,1.02254,0,53,53,35,1,2,,
,,,,,,,,,,,,,,,,,,,,,,,,,,,images/22possible.bmp,images/22possible.bmp,images/22possible.bmp,images/22possible.bmp,,,,,,,,,,,,,,images/22possible.bmp,,,,,,,,s,possible,216,216,144,72,0,288,216,144,72,0,288,216,144,72,0,288,216,216,144,72,0,288,216,144,72,0,288,216,144,72,0,288,60401d29ac48a7206efa723b,60464aa337e6200dda73e714,2021-03-08_17h03.22.842,Impossible2021,2020.1.3,Win32,60,60462d2f8138f40887a79fc4,,,s,1,1.06051,0,54,54,75,1,4,,
,,,,,,,,,,,,,,,,,,,,,,,,,,,,,,,images/65possible.bmp,images/65possible.bmp,images/65possible.bmp,images/65possible.bmp,images/65possible.bmp,,,,,,,,,,,,,images/65possible.bmp,,,,d,possible,144,144,72,0,288,216,144,72,0,288,216,144,72,0,288,216,72,72,0,288,216,144,72,0,288,216,144,72,0,288,216,144,60401d29ac48a7206efa723b,60464aa337e6200dda73e714,2021-03-08_17h03.22.842,Impossible2021,2020.1.3,Win32,60,60462d2f8138f40887a79fc4,,,s,0,0.70925,0,55,55,118,1,5,,
,,,,,,,,,,,,,,,,,,,,,,,,images/55possible.bmp,images/55possible.bmp,images/55possible.bmp,,,,,,,,,,,,,,,images/55possible.bmp,,,,,,,,,,,d,possible,72,72,0,288,216,144,72,0,288,216,144,72,0,288,216,144,0,0,288,216,144,72,0,288,216,144,72,0,288,216,144,72,60401d29ac48a7206efa723b,60464aa337e6200dda73e714,2021-03-08_17h03.22.842,Impossible2021,2020.1.3,Win32,60,60462d2f8138f40887a79fc4,,,d,1,1.803115,0,56,56,69,1,3,,
,,,,,,,,,,,,,,,,,,,,,,,,,,,images/65impossible.bmp,images/65impossible.bmp,images/65impossible.bmp,images/65impossible.bmp,,,,,,,,,,,,,,,images/65impossible.bmp,,,,,,,s,impossible,144,144,72,0,288,216,144,72,0,288,216,144,72,0,288,216,144,144,72,0,288,216,144,72,0,288,216,144,72,0,288,216,60401d29ac48a7206efa723b,60464aa337e6200dda73e714,2021-03-08_17h03.22.842,Impossible2021,2020.1.3,Win32,60,60462d2f8138f40887a79fc4,,,s,1,0.673165,0,57,57,88,1,4,,
,,,,,,,,,,,,,,,,,,,,,,,,images/03impossible.bmp,images/03impossible.bmp,images/03impossible.bmp,,,,,,,,,,,,,,,images/03impossible.bmp,,,,,,,,,,,s,impossible,72,72,0,288,216,144,72,0,288,216,144,72,0,288,216,144,72,72,0,288,216,144,72,0,288,216,144,72,0,288,216,144,60401d29ac48a7206efa723b,60464aa337e6200dda73e714,2021-03-08_17h03.22.842,Impossible2021,2020.1.3,Win32,60,60462d2f8138f40887a79fc4,,,s,1,0.542735,0,58,58,48,1,3,,
,,,,,,,,,,,,,,,,,,,,images/65possible.bmp,,,,,,,,,,,,,,,,images/65possible.bmp,,,,,,,,,,,,,,,,s,possible,144,144,72,0,288,216,144,72,0,288,216,144,72,0,288,216,144,144,72,0,288,216,144,72,0,288,216,144,72,0,288,216,60401d29ac48a7206efa723b,60464aa337e6200dda73e714,2021-03-08_17h03.22.842,Impossible2021,2020.1.3,Win32,60,60462d2f8138f40887a79fc4,,,s,1,0.708645,0,59,59,16,1,1,,
,,,,,,,,,,,,,,,,,,,,,images/65possible.bmp,,,,,,,,,,,,,,,,images/65possible.bmp,,,,,,,,,,,,,,,d,possible,144,144,72,0,288,216,144,72,0,288,216,144,72,0,288,216,72,72,0,288,216,144,72,0,288,216,144,72,0,288,216,144,60401d29ac48a7206efa723b,60464aa337e6200dda73e714,2021-03-08_17h03.22.842,Impossible2021,2020.1.3,Win32,60,60462d2f8138f40887a79fc4,,,s,0,0.4121,0,60,60,22,1,1,,
,,,,,,,,,,,,,,,,,,,,images/08impossible.bmp,,,,,,,,,,,,,,,,images/08impossible.bmp,,,,,,,,,,,,,,,,d,impossible,288,288,216,144,72,0,288,216,144,72,0,288,216,144,72,0,216,216,144,72,0,288,216,144,72,0,288,216,144,72,0,288,60401d29ac48a7206efa723b,60464aa337e6200dda73e714,2021-03-08_17h03.22.842,Impossible2021,2020.1.3,Win32,60,60462d2f8138f40887a79fc4,,,d,1,0.742245,0,61,61,8,1,1,,
,,,,,,,,,,,,,,,,,,,,,,images/42impossible.bmp,images/42impossible.bmp,,,,,,,,,,,,,,,,images/42impossible.bmp,,,,,,,,,,,,,s,impossible,144,144,72,0,288,216,144,72,0,288,216,144,72,0,288,216,144,144,72,0,288,216,144,72,0,288,216,144,72,0,288,216,60401d29ac48a7206efa723b,60464aa337e6200dda73e714,2021-03-08_17h03.22.842,Impossible2021,2020.1.3,Win32,60,60462d2f8138f40887a79fc4,,,s,1,0.775475,0,62,62,37,1,2,,
,,,,,,,,,,,,,,,,,,,,,,,,,,,images/42impossible.bmp,images/42impossible.bmp,images/42impossible.bmp,images/42impossible.bmp,,,,,,,,,,,,,,,,images/42impossible.bmp,,,,,,d,impossible,144,144,72,0,288,216,144,72,0,288,216,144,72,0,288,216,72,72,0,288,216,144,72,0,288,216,144,72,0,288,216,144,60401d29ac48a7206efa723b,60464aa337e6200dda73e714,2021-03-08_17h03.22.842,Impossible2021,2020.1.3,Win32,60,60462d2f8138f40887a79fc4,,,d,1,0.928305,0,63,63,91,1,4,,
,,,,,,,,,,,,,,,,,,,,,,,,images/44possible.bmp,images/44possible.bmp,images/44possible.bmp,,,,,,,,,,,,,,,,images/44possible.bmp,,,,,,,,,,s,possible,216,216,144,72,0,288,216,144,72,0,288,216,144,72,0,288,216,216,144,72,0,288,216,144,72,0,288,216,144,72,0,288,60401d29ac48a7206efa723b,60464aa337e6200dda73e714,2021-03-08_17h03.22.842,Impossible2021,2020.1.3,Win32,60,60462d2f8138f40887a79fc4,,,s,1,0.55794,0,64,64,62,1,3,,
,,,,,,,,,,,,,,,,,,,,,,images/24possible.bmp,images/24possible.bmp,,,,,,,,,,,,,,,images/24possible.bmp,,,,,,,,,,,,,,d,possible,0,0,288,216,144,72,0,288,216,144,72,0,288,216,144,72,288,288,216,144,72,0,288,216,144,72,0,288,216,144,72,0,60401d29ac48a7206efa723b,60464aa337e6200dda73e714,2021-03-08_17h03.22.842,Impossible2021,2020.1.3,Win32,60,60462d2f8138f40887a79fc4,,,s,0,0.99127,0,65,65,34,1,2,,
,,,,,,,,,,,,,,,,,,,,,,images/08possible.bmp,images/08possible.bmp,,,,,,,,,,,,,,,images/08possible.bmp,,,,,,,,,,,,,,d,possible,288,288,216,144,72,0,288,216,144,72,0,288,216,144,72,0,216,216,144,72,0,288,216,144,72,0,288,216,144,72,0,288,60401d29ac48a7206efa723b,60464aa337e6200dda73e714,2021-03-08_17h03.22.842,Impossible2021,2020.1.3,Win32,60,60462d2f8138f40887a79fc4,,,s,0,0.929935,0,66,66,32,1,2,,
,,,,,,,,,,,,,,,,,,,,,images/38possible.bmp,,,,,,,,,,,,,,,,images/38possible.bmp,,,,,,,,,,,,,,,d,possible,72,72,0,288,216,144,72,0,288,216,144,72,0,288,216,144,0,0,288,216,144,72,0,288,216,144,72,0,288,216,144,72,60401d29ac48a7206efa723b,60464aa337e6200dda73e714,2021-03-08_17h03.22.842,Impossible2021,2020.1.3,Win32,60,60462d2f8138f40887a79fc4,,,d,1,0.650695,0,67,67,18,1,1,,
,,,,,,,,,,,,,,,,,,,,,,,,images/69possible.bmp,images/69possible.bmp,images/69possible.bmp,,,,,,,,,,,,,,,,images/69possible.bmp,,,,,,,,,,s,possible,216,216,144,72,0,288,216,144,72,0,288,216,144,72,0,288,216,216,144,72,0,288,216,144,72,0,288,216,144,72,0,288,60401d29ac48a7206efa723b,60464aa337e6200dda73e714,2021-03-08_17h03.22.842,Impossible2021,2020.1.3,Win32,60,60462d2f8138f40887a79fc4,,,s,1,1.18402,0,68,68,65,1,3,,
,,,,,,,,,,,,,,,,,,,,,,images/44impossible.bmp,images/44impossible.bmp,,,,,,,,,,,,,,,images/44impossible.bmp,,,,,,,,,,,,,,s,impossible,216,216,144,72,0,288,216,144,72,0,288,216,144,72,0,288,216,216,144,72,0,288,216,144,72,0,288,216,144,72,0,288,60401d29ac48a7206efa723b,60464aa337e6200dda73e714,2021-03-08_17h03.22.842,Impossible2021,2020.1.3,Win32,60,60462d2f8138f40887a79fc4,,,s,1,0.84362,0,69,69,38,1,2,,
,,,,,,,,,,,,,,,,,,,,,,,,,,,,,,,images/24impossible.bmp,images/24impossible.bmp,images/24impossible.bmp,images/24impossible.bmp,images/24impossible.bmp,,,,,,,,,,,,images/24impossible.bmp,,,,,s,impossible,0,0,288,216,144,72,0,288,216,144,72,0,288,216,144,72,0,0,288,216,144,72,0,288,216,144,72,0,288,216,144,72,60401d29ac48a7206efa723b,60464aa337e6200dda73e714,2021-03-08_17h03.22.842,Impossible2021,2020.1.3,Win32,60,60462d2f8138f40887a79fc4,,,s,1,1.156145,0,70,70,100,1,5,,
,,,,,,,,,,,,,,,,,,,,,images/69possible.bmp,,,,,,,,,,,,,,,,images/69possible.bmp,,,,,,,,,,,,,,,s,possible,216,216,144,72,0,288,216,144,72,0,288,216,144,72,0,288,216,216,144,72,0,288,216,144,72,0,288,216,144,72,0,288,60401d29ac48a7206efa723b,60464aa337e6200dda73e714,2021-03-08_17h03.22.842,Impossible2021,2020.1.3,Win32,60,60462d2f8138f40887a79fc4,,,s,1,0.689915,0,71,71,17,1,1,,
,,,,,,,,,,,,,,,,,,,,images/25impossible.bmp,,,,,,,,,,,,,,,,images/25impossible.bmp,,,,,,,,,,,,,,,,s,impossible,72,72,0,288,216,144,72,0,288,216,144,72,0,288,216,144,72,72,0,288,216,144,72,0,288,216,144,72,0,288,216,144,60401d29ac48a7206efa723b,60464aa337e6200dda73e714,2021-03-08_17h03.22.842,Impossible2021,2020.1.3,Win32,60,60462d2f8138f40887a79fc4,,,s,1,0.92974,0,72,72,5,1,1,,
,,,,,,,,,,,,,,,,,,,,,,,,,,,images/03possible.bmp,images/03possible.bmp,images/03possible.bmp,images/03possible.bmp,,,,,,,,,,,,,,,,images/03possible.bmp,,,,,,d,possible,72,72,0,288,216,144,72,0,288,216,144,72,0,288,216,144,0,0,288,216,144,72,0,288,216,144,72,0,288,216,144,72,60401d29ac48a7206efa723b,60464aa337e6200dda73e714,2021-03-08_17h03.22.842,Impossible2021,2020.1.3,Win32,60,60462d2f8138f40887a79fc4,,,d,1,1.29517,0,73,73,78,1,4,,
,,,,,,,,,,,,,,,,,,,,,,,,,,,,,,,images/03impossible.bmp,images/03impossible.bmp,images/03impossible.bmp,images/03impossible.bmp,images/03impossible.bmp,,,,,,,,,,,,,images/03impossible.bmp,,,,s,impossible,72,72,0,288,216,144,72,0,288,216,144,72,0,288,216,144,72,72,0,288,216,144,72,0,288,216,144,72,0,288,216,144,60401d29ac48a7206efa723b,60464aa337e6200dda73e714,2021-03-08_17h03.22.842,Impossible2021,2020.1.3,Win32,60,60462d2f8138f40887a79fc4,,,d,0,1.284865,0,74,74,96,1,5,,
,,,,,,,,,,,,,,,,,,,,,,,,images/38possible.bmp,images/38possible.bmp,images/38possible.bmp,,,,,,,,,,,,,,,images/38possible.bmp,,,,,,,,,,,d,possible,72,72,0,288,216,144,72,0,288,216,144,72,0,288,216,144,0,0,288,216,144,72,0,288,216,144,72,0,288,216,144,72,60401d29ac48a7206efa723b,60464aa337e6200dda73e714,2021-03-08_17h03.22.842,Impossible2021,2020.1.3,Win32,60,60462d2f8138f40887a79fc4,,,s,0,1.31725,0,75,75,66,1,3,,
,,,,,,,,,,,,,,,,,,,,,,,,,,,images/38impossible.bmp,images/38impossible.bmp,images/38impossible.bmp,images/38impossible.bmp,,,,,,,,,,,,,,,images/38impossible.bmp,,,,,,,d,impossible,72,72,0,288,216,144,72,0,288,216,144,72,0,288,216,144,0,0,288,216,144,72,0,288,216,144,72,0,288,216,144,72,60401d29ac48a7206efa723b,60464aa337e6200dda73e714,2021-03-08_17h03.22.842,Impossible2021,2020.1.3,Win32,60,60462d2f8138f40887a79fc4,,,d,1,1.964895,0,76,76,90,1,4,,
,,,,,,,,,,,,,,,,,,,,,,,,,,,images/24possible.bmp,images/24possible.bmp,images/24possible.bmp,images/24possible.bmp,,,,,,,,,,,,,images/24possible.bmp,,,,,,,,,s,possible,0,0,288,216,144,72,0,288,216,144,72,0,288,216,144,72,0,0,288,216,144,72,0,288,216,144,72,0,288,216,144,72,60401d29ac48a7206efa723b,60464aa337e6200dda73e714,2021-03-08_17h03.22.842,Impossible2021,2020.1.3,Win32,60,60462d2f8138f40887a79fc4,,,s,1,1.09849,0,77,77,76,1,4,,
,,,,,,,,,,,,,,,,,,,,images/55possible.bmp,,,,,,,,,,,,,,,,images/55possible.bmp,,,,,,,,,,,,,,,,d,possible,72,72,0,288,216,144,72,0,288,216,144,72,0,288,216,144,0,0,288,216,144,72,0,288,216,144,72,0,288,216,144,72,60401d29ac48a7206efa723b,60464aa337e6200dda73e714,2021-03-08_17h03.22.842,Impossible2021,2020.1.3,Win32,60,60462d2f8138f40887a79fc4,,,d,1,0.940755,0,78,78,21,1,1,,
,,,,,,,,,,,,,,,,,,,,,,,,images/22impossible.bmp,images/22impossible.bmp,images/22impossible.bmp,,,,,,,,,,,,,,,,images/22impossible.bmp,,,,,,,,,,d,impossible,216,216,144,72,0,288,216,144,72,0,288,216,144,72,0,288,144,144,72,0,288,216,144,72,0,288,216,144,72,0,288,216,60401d29ac48a7206efa723b,60464aa337e6200dda73e714,2021-03-08_17h03.22.842,Impossible2021,2020.1.3,Win32,60,60462d2f8138f40887a79fc4,,,d,1,1.223595,0,79,79,57,1,3,,
,,,,,,,,,,,,,,,,,,,,,,,,,,,,,,,images/25impossible.bmp,images/25impossible.bmp,images/25impossible.bmp,images/25impossible.bmp,images/25impossible.bmp,,,,,,,,,,,,,images/25impossible.bmp,,,,s,impossible,72,72,0,288,216,144,72,0,288,216,144,72,0,288,216,144,72,72,0,288,216,144,72,0,288,216,144,72,0,288,216,144,60401d29ac48a7206efa723b,60464aa337e6200dda73e714,2021-03-08_17h03.22.842,Impossible2021,2020.1.3,Win32,60,60462d2f8138f40887a79fc4,,,s,1,0.93071,0,80,80,101,1,5,,
,,,,,,,,,,,,,,,,,,,,,images/08impossible.bmp,,,,,,,,,,,,,,,,images/08impossible.bmp,,,,,,,,,,,,,,,s,impossible,288,288,216,144,72,0,288,216,144,72,0,288,216,144,72,0,288,288,216,144,72,0,288,216,144,72,0,288,216,144,72,0,60401d29ac48a7206efa723b,60464aa337e6200dda73e714,2021-03-08_17h03.22.842,Impossible2021,2020.1.3,Win32,60,60462d2f8138f40887a79fc4,,,s,1,0.545375,0,81,81,2,1,1,,
,,,,,,,,,,,,,,,,,,,,,,,,images/55possible.bmp,images/55possible.bmp,images/55possible.bmp,,,,,,,,,,,,,,images/55possible.bmp,,,,,,,,,,,,s,possible,72,72,0,288,216,144,72,0,288,216,144,72,0,288,216,144,72,72,0,288,216,144,72,0,288,216,144,72,0,288,216,144,60401d29ac48a7206efa723b,60464aa337e6200dda73e714,2021-03-08_17h03.22.842,Impossible2021,2020.1.3,Win32,60,60462d2f8138f40887a79fc4,,,s,1,0.807825,0,82,82,63,1,3,,
,,,,,,,,,,,,,,,,,,,,,,,,,,,,,,,images/25impossible.bmp,images/25impossible.bmp,images/25impossible.bmp,images/25impossible.bmp,images/25impossible.bmp,,,,,,,,,,,,,,,,images/25impossible.bmp,d,impossible,72,72,0,288,216,144,72,0,288,216,144,72,0,288,216,144,0,0,288,216,144,72,0,288,216,144,72,0,288,216,144,72,60401d29ac48a7206efa723b,60464aa337e6200dda73e714,2021-03-08_17h03.22.842,Impossible2021,2020.1.3,Win32,60,60462d2f8138f40887a79fc4,,,s,0,1.06379,0,83,83,107,1,5,,
,,,,,,,,,,,,,,,,,,,,,,,,,,,,,,,images/44possible.bmp,images/44possible.bmp,images/44possible.bmp,images/44possible.bmp,images/44possible.bmp,,,,,,,,,,,,,,images/44possible.bmp,,,s,possible,216,216,144,72,0,288,216,144,72,0,288,216,144,72,0,288,216,216,144,72,0,288,216,144,72,0,288,216,144,72,0,288,60401d29ac48a7206efa723b,60464aa337e6200dda73e714,2021-03-08_17h03.22.842,Impossible2021,2020.1.3,Win32,60,60462d2f8138f40887a79fc4,,,s,1,1.095835,0,84,84,110,1,5,,
,,,,,,,,,,,,,,,,,,,,,,,,,,,,,,,images/24impossible.bmp,images/24impossible.bmp,images/24impossible.bmp,images/24impossible.bmp,images/24impossible.bmp,,,,,,,,,,,,,,,,images/24impossible.bmp,d,impossible,0,0,288,216,144,72,0,288,216,144,72,0,288,216,144,72,288,288,216,144,72,0,288,216,144,72,0,288,216,144,72,0,60401d29ac48a7206efa723b,60464aa337e6200dda73e714,2021-03-08_17h03.22.842,Impossible2021,2020.1.3,Win32,60,60462d2f8138f40887a79fc4,,,d,1,1.4491,0,85,85,106,1,5,,
,,,,,,,,,,,,,,,,,,,,,,,,,,,images/42impossible.bmp,images/42impossible.bmp,images/42impossible.bmp,images/42impossible.bmp,,,,,,,,,,,,,,,,images/42impossible.bmp,,,,,,s,impossible,144,144,72,0,288,216,144,72,0,288,216,144,72,0,288,216,144,144,72,0,288,216,144,72,0,288,216,144,72,0,288,216,60401d29ac48a7206efa723b,60464aa337e6200dda73e714,2021-03-08_17h03.22.842,Impossible2021,2020.1.3,Win32,60,60462d2f8138f40887a79fc4,,,s,1,0.74682,0,86,86,85,1,4,,
,,,,,,,,,,,,,,,,,,,,,images/25impossible.bmp,,,,,,,,,,,,,,,,images/25impossible.bmp,,,,,,,,,,,,,,,d,impossible,72,72,0,288,216,144,72,0,288,216,144,72,0,288,216,144,0,0,288,216,144,72,0,288,216,144,72,0,288,216,144,72,60401d29ac48a7206efa723b,60464aa337e6200dda73e714,2021-03-08_17h03.22.842,Impossible2021,2020.1.3,Win32,60,60462d2f8138f40887a79fc4,,,d,1,0.73994,0,87,87,11,1,1,,
,,,,,,,,,,,,,,,,,,,,images/44possible.bmp,,,,,,,,,,,,,,,,images/44possible.bmp,,,,,,,,,,,,,,,,s,possible,216,216,144,72,0,288,216,144,72,0,288,216,144,72,0,288,216,216,144,72,0,288,216,144,72,0,288,216,144,72,0,288,60401d29ac48a7206efa723b,60464aa337e6200dda73e714,2021-03-08_17h03.22.842,Impossible2021,2020.1.3,Win32,60,60462d2f8138f40887a79fc4,,,s,1,0.54731,0,88,88,14,1,1,,
,,,,,,,,,,,,,,,,,,,,images/22impossible.bmp,,,,,,,,,,,,,,,,images/22impossible.bmp,,,,,,,,,,,,,,,,d,impossible,216,216,144,72,0,288,216,144,72,0,288,216,144,72,0,288,144,144,72,0,288,216,144,72,0,288,216,144,72,0,288,216,60401d29ac48a7206efa723b,60464aa337e6200dda73e714,2021-03-08_17h03.22.842,Impossible2021,2020.1.3,Win32,60,60462d2f8138f40887a79fc4,,,d,1,0.74103,0,89,89,9,1,1,,
,,,,,,,,,,,,,,,,,,,,images/69possible.bmp,,,,,,,,,,,,,,,,images/69possible.bmp,,,,,,,,,,,,,,,,d,possible,216,216,144,72,0,288,216,144,72,0,288,216,144,72,0,288,144,144,72,0,288,216,144,72,0,288,216,144,72,0,288,216,60401d29ac48a7206efa723b,60464aa337e6200dda73e714,2021-03-08_17h03.22.842,Impossible2021,2020.1.3,Win32,60,60462d2f8138f40887a79fc4,,,d,1,0.7741,0,90,90,23,1,1,,
,,,,,,,,,,,,,,,,,,,,,,,,,,,images/05possible.bmp,images/05possible.bmp,images/05possible.bmp,images/05possible.bmp,,,,,,,,,,,,,,,,images/05possible.bmp,,,,,,s,possible,216,216,144,72,0,288,216,144,72,0,288,216,144,72,0,288,216,216,144,72,0,288,216,144,72,0,288,216,144,72,0,288,60401d29ac48a7206efa723b,60464aa337e6200dda73e714,2021-03-08_17h03.22.842,Impossible2021,2020.1.3,Win32,60,60462d2f8138f40887a79fc4,,,d,0,1.64738,0,91,91,73,1,4,,
,,,,,,,,,,,,,,,,,,,,,,,,,,,images/38impossible.bmp,images/38impossible.bmp,images/38impossible.bmp,images/38impossible.bmp,,,,,,,,,,,,,images/38impossible.bmp,,,,,,,,,s,impossible,72,72,0,288,216,144,72,0,288,216,144,72,0,288,216,144,72,72,0,288,216,144,72,0,288,216,144,72,0,288,216,144,60401d29ac48a7206efa723b,60464aa337e6200dda73e714,2021-03-08_17h03.22.842,Impossible2021,2020.1.3,Win32,60,60462d2f8138f40887a79fc4,,,d,0,1.255515,0,92,92,84,1,4,,
,,,,,,,,,,,,,,,,,,,,,,,,,,,images/55impossible.bmp,images/55impossible.bmp,images/55impossible.bmp,images/55impossible.bmp,,,,,,,,,,,,,,,,images/55impossible.bmp,,,,,,d,impossible,72,72,0,288,216,144,72,0,288,216,144,72,0,288,216,144,0,0,288,216,144,72,0,288,216,144,72,0,288,216,144,72,60401d29ac48a7206efa723b,60464aa337e6200dda73e714,2021-03-08_17h03.22.842,Impossible2021,2020.1.3,Win32,60,60462d2f8138f40887a79fc4,,,d,1,1.871755,0,93,93,93,1,4,,
,,,,,,,,,,,,,,,,,,,,,,,,images/25impossible.bmp,images/25impossible.bmp,images/25impossible.bmp,,,,,,,,,,,,,,images/25impossible.bmp,,,,,,,,,,,,d,impossible,72,72,0,288,216,144,72,0,288,216,144,72,0,288,216,144,0,0,288,216,144,72,0,288,216,144,72,0,288,216,144,72,60401d29ac48a7206efa723b,60464aa337e6200dda73e714,2021-03-08_17h03.22.842,Impossible2021,2020.1.3,Win32,60,60462d2f8138f40887a79fc4,,,s,0,1.214125,0,94,94,59,1,3,,
,,,,,,,,,,,,,,,,,,,,,,,,,,,,,,,images/05impossible.bmp,images/05impossible.bmp,images/05impossible.bmp,images/05impossible.bmp,images/05impossible.bmp,,,,,,,,,,,,,,,images/05impossible.bmp,,s,impossible,216,216,144,72,0,288,216,144,72,0,288,216,144,72,0,288,216,216,144,72,0,288,216,144,72,0,288,216,144,72,0,288,60401d29ac48a7206efa723b,60464aa337e6200dda73e714,2021-03-08_17h03.22.842,Impossible2021,2020.1.3,Win32,60,60462d2f8138f40887a79fc4,,,d,0,1.4572,0,95,95,97,1,5,,
,,,,,,,,,,,,,,,,,,,,,,,,,,,images/44impossible.bmp,images/44impossible.bmp,images/44impossible.bmp,images/44impossible.bmp,,,,,,,,,,,,,,,images/44impossible.bmp,,,,,,,s,impossible,216,216,144,72,0,288,216,144,72,0,288,216,144,72,0,288,216,216,144,72,0,288,216,144,72,0,288,216,144,72,0,288,60401d29ac48a7206efa723b,60464aa337e6200dda73e714,2021-03-08_17h03.22.842,Impossible2021,2020.1.3,Win32,60,60462d2f8138f40887a79fc4,,,s,1,1.370255,0,96,96,86,1,4,,
,,,,,,,,,,,,,,,,,,,,,,,,,,,,,,,images/69possible.bmp,images/69possible.bmp,images/69possible.bmp,images/69possible.bmp,images/69possible.bmp,,,,,,,,,,,,,,images/69possible.bmp,,,d,possible,216,216,144,72,0,288,216,144,72,0,288,216,144,72,0,288,144,144,72,0,288,216,144,72,0,288,216,144,72,0,288,216,60401d29ac48a7206efa723b,60464aa337e6200dda73e714,2021-03-08_17h03.22.842,Impossible2021,2020.1.3,Win32,60,60462d2f8138f40887a79fc4,,,d,1,1.613795,0,97,97,119,1,5,,
,,,,,,,,,,,,,,,,,,,,,,images/22possible.bmp,images/22possible.bmp,,,,,,,,,,,,,,,,images/22possible.bmp,,,,,,,,,,,,,s,possible,216,216,144,72,0,288,216,144,72,0,288,216,144,72,0,288,216,216,144,72,0,288,216,144,72,0,288,216,144,72,0,288,60401d29ac48a7206efa723b,60464aa337e6200dda73e714,2021-03-08_17h03.22.842,Impossible2021,2020.1.3,Win32,60,60462d2f8138f40887a79fc4,,,s,1,1.42301,0,98,98,27,1,2,,
,,,,,,,,,,,,,,,,,,,,,,,,,,,images/65impossible.bmp,images/65impossible.bmp,images/65impossible.bmp,images/65impossible.bmp,,,,,,,,,,,,,,,images/65impossible.bmp,,,,,,,d,impossible,144,144,72,0,288,216,144,72,0,288,216,144,72,0,288,216,72,72,0,288,216,144,72,0,288,216,144,72,0,288,216,144,60401d29ac48a7206efa723b,60464aa337e6200dda73e714,2021-03-08_17h03.22.842,Impossible2021,2020.1.3,Win32,60,60462d2f8138f40887a79fc4,,,d,1,2.42484,0,99,99,94,1,4,,
,,,,,,,,,,,,,,,,,,,,,,,,,,,,,,,images/08impossible.bmp,images/08impossible.bmp,images/08impossible.bmp,images/08impossible.bmp,images/08impossible.bmp,,,,,,,,,,,,,images/08impossible.bmp,,,,d,impossible,288,288,216,144,72,0,288,216,144,72,0,288,216,144,72,0,216,216,144,72,0,288,216,144,72,0,288,216,144,72,0,288,60401d29ac48a7206efa723b,60464aa337e6200dda73e714,2021-03-08_17h03.22.842,Impossible2021,2020.1.3,Win32,60,60462d2f8138f40887a79fc4,,,d,1,1.4146,0,100,100,104,1,5,,
,,,,,,,,,,,,,,,,,,,,,,,,,,,,,,,images/55possible.bmp,images/55possible.bmp,images/55possible.bmp,images/55possible.bmp,images/55possible.bmp,,,,,,,,,,,,images/55possible.bmp,,,,,d,possible,72,72,0,288,216,144,72,0,288,216,144,72,0,288,216,144,0,0,288,216,144,72,0,288,216,144,72,0,288,216,144,72,60401d29ac48a7206efa723b,60464aa337e6200dda73e714,2021-03-08_17h03.22.842,Impossible2021,2020.1.3,Win32,60,60462d2f8138f40887a79fc4,,,s,0,1.624025,0,101,101,117,1,5,,
,,,,,,,,,,,,,,,,,,,,,images/22impossible.bmp,,,,,,,,,,,,,,,,images/22impossible.bmp,,,,,,,,,,,,,,,s,impossible,216,216,144,72,0,288,216,144,72,0,288,216,144,72,0,288,216,216,144,72,0,288,216,144,72,0,288,216,144,72,0,288,60401d29ac48a7206efa723b,60464aa337e6200dda73e714,2021-03-08_17h03.22.842,Impossible2021,2020.1.3,Win32,60,60462d2f8138f40887a79fc4,,,s,1,0.59404,0,102,102,3,1,1,,
,,,,,,,,,,,,,,,,,,,,,,,,,,,,,,,images/38possible.bmp,images/38possible.bmp,images/38possible.bmp,images/38possible.bmp,images/38possible.bmp,,,,,,,,,,,,images/38possible.bmp,,,,,s,possible,72,72,0,288,216,144,72,0,288,216,144,72,0,288,216,144,72,72,0,288,216,144,72,0,288,216,144,72,0,288,216,144,60401d29ac48a7206efa723b,60464aa337e6200dda73e714,2021-03-08_17h03.22.842,Impossible2021,2020.1.3,Win32,60,60462d2f8138f40887a79fc4,,,s,1,0.65598,0,103,103,108,1,5,,
,,,,,,,,,,,,,,,,,,,,,,images/55impossible.bmp,images/55impossible.bmp,,,,,,,,,,,,,,,,images/55impossible.bmp,,,,,,,,,,,,,s,impossible,72,72,0,288,216,144,72,0,288,216,144,72,0,288,216,144,72,72,0,288,216,144,72,0,288,216,144,72,0,288,216,144,60401d29ac48a7206efa723b,60464aa337e6200dda73e714,2021-03-08_17h03.22.842,Impossible2021,2020.1.3,Win32,60,60462d2f8138f40887a79fc4,,,s,1,0.60677,0,104,104,39,1,2,,
,,,,,,,,,,,,,,,,,,,,,,,,images/08impossible.bmp,images/08impossible.bmp,images/08impossible.bmp,,,,,,,,,,,,,,,images/08impossible.bmp,,,,,,,,,,,d,impossible,288,288,216,144,72,0,288,216,144,72,0,288,216,144,72,0,216,216,144,72,0,288,216,144,72,0,288,216,144,72,0,288,60401d29ac48a7206efa723b,60464aa337e6200dda73e714,2021-03-08_17h03.22.842,Impossible2021,2020.1.3,Win32,60,60462d2f8138f40887a79fc4,,,s,0,2.189205,0,105,105,56,1,3,,
,,,,,,,,,,,,,,,,,,,,,,images/38impossible.bmp,images/38impossible.bmp,,,,,,,,,,,,,,,images/38impossible.bmp,,,,,,,,,,,,,,d,impossible,72,72,0,288,216,144,72,0,288,216,144,72,0,288,216,144,0,0,288,216,144,72,0,288,216,144,72,0,288,216,144,72,60401d29ac48a7206efa723b,60464aa337e6200dda73e714,2021-03-08_17h03.22.842,Impossible2021,2020.1.3,Win32,60,60462d2f8138f40887a79fc4,,,d,1,1.088005,0,106,106,42,1,2,,
,,,,,,,,,,,,,,,,,,,,,,images/05possible.bmp,images/05possible.bmp,,,,,,,,,,,,,,,,images/05possible.bmp,,,,,,,,,,,,,s,possible,216,216,144,72,0,288,216,144,72,0,288,216,144,72,0,288,216,216,144,72,0,288,216,144,72,0,288,216,144,72,0,288,60401d29ac48a7206efa723b,60464aa337e6200dda73e714,2021-03-08_17h03.22.842,Impossible2021,2020.1.3,Win32,60,60462d2f8138f40887a79fc4,,,s,1,0.697845,0,107,107,25,1,2,,
,,,,,,,,,,,,,,,,,,,,,,,,,,,,,,,images/38possible.bmp,images/38possible.bmp,images/38possible.bmp,images/38possible.bmp,images/38possible.bmp,,,,,,,,,,,,,,,,images/38possible.bmp,d,possible,72,72,0,288,216,144,72,0,288,216,144,72,0,288,216,144,0,0,288,216,144,72,0,288,216,144,72,0,288,216,144,72,60401d29ac48a7206efa723b,60464aa337e6200dda73e714,2021-03-08_17h03.22.842,Impossible2021,2020.1.3,Win32,60,60462d2f8138f40887a79fc4,,,d,1,1.02366,0,108,108,114,1,5,,
,,,,,,,,,,,,,,,,,,,,,,,,,,,,,,,images/69possible.bmp,images/69possible.bmp,images/69possible.bmp,images/69possible.bmp,images/69possible.bmp,,,,,,,,,,,,,,images/69possible.bmp,,,s,possible,216,216,144,72,0,288,216,144,72,0,288,216,144,72,0,288,216,216,144,72,0,288,216,144,72,0,288,216,144,72,0,288,60401d29ac48a7206efa723b,60464aa337e6200dda73e714,2021-03-08_17h03.22.842,Impossible2021,2020.1.3,Win32,60,60462d2f8138f40887a79fc4,,,s,1,0.76876,0,109,109,113,1,5,,
,,,,,,,,,,,,,,,,,,,,,,,,images/38possible.bmp,images/38possible.bmp,images/38possible.bmp,,,,,,,,,,,,,,,images/38possible.bmp,,,,,,,,,,,s,possible,72,72,0,288,216,144,72,0,288,216,144,72,0,288,216,144,72,72,0,288,216,144,72,0,288,216,144,72,0,288,216,144,60401d29ac48a7206efa723b,60464aa337e6200dda73e714,2021-03-08_17h03.22.842,Impossible2021,2020.1.3,Win32,60,60462d2f8138f40887a79fc4,,,s,1,0.59172,0,110,110,60,1,3,,
,,,,,,,,,,,,,,,,,,,,,,,,,,,images/08possible.bmp,images/08possible.bmp,images/08possible.bmp,images/08possible.bmp,,,,,,,,,,,,,,,images/08possible.bmp,,,,,,,s,possible,288,288,216,144,72,0,288,216,144,72,0,288,216,144,72,0,288,288,216,144,72,0,288,216,144,72,0,288,216,144,72,0,60401d29ac48a7206efa723b,60464aa337e6200dda73e714,2021-03-08_17h03.22.842,Impossible2021,2020.1.3,Win32,60,60462d2f8138f40887a79fc4,,,d,0,1.794,0,111,111,74,1,4,,
,,,,,,,,,,,,,,,,,,,,,,images/69impossible.bmp,images/69impossible.bmp,,,,,,,,,,,,,,,,images/69impossible.bmp,,,,,,,,,,,,,s,impossible,216,216,144,72,0,288,216,144,72,0,288,216,144,72,0,288,216,216,144,72,0,288,216,144,72,0,288,216,144,72,0,288,60401d29ac48a7206efa723b,60464aa337e6200dda73e714,2021-03-08_17h03.22.842,Impossible2021,2020.1.3,Win32,60,60462d2f8138f40887a79fc4,,,s,1,0.49076,0,112,112,41,1,2,,
,,,,,,,,,,,,,,,,,,,,,,,,images/42possible.bmp,images/42possible.bmp,images/42possible.bmp,,,,,,,,,,,,,,images/42possible.bmp,,,,,,,,,,,,d,possible,144,144,72,0,288,216,144,72,0,288,216,144,72,0,288,216,72,72,0,288,216,144,72,0,288,216,144,72,0,288,216,144,60401d29ac48a7206efa723b,60464aa337e6200dda73e714,2021-03-08_17h03.22.842,Impossible2021,2020.1.3,Win32,60,60462d2f8138f40887a79fc4,,,s,0,0.930805,0,113,113,67,1,3,,
,,,,,,,,,,,,,,,,,,,,images/05impossible.bmp,,,,,,,,,,,,,,,,images/05impossible.bmp,,,,,,,,,,,,,,,,s,impossible,216,216,144,72,0,288,216,144,72,0,288,216,144,72,0,288,216,216,144,72,0,288,216,144,72,0,288,216,144,72,0,288,60401d29ac48a7206efa723b,60464aa337e6200dda73e714,2021-03-08_17h03.22.842,Impossible2021,2020.1.3,Win32,60,60462d2f8138f40887a79fc4,,,s,1,0.57521,0,114,114,1,1,1,,
,,,,,,,,,,,,,,,,,,,,images/38possible.bmp,,,,,,,,,,,,,,,,images/38possible.bmp,,,,,,,,,,,,,,,,s,possible,72,72,0,288,216,144,72,0,288,216,144,72,0,288,216,144,72,72,0,288,216,144,72,0,288,216,144,72,0,288,216,144,60401d29ac48a7206efa723b,60464aa337e6200dda73e714,2021-03-08_17h03.22.842,Impossible2021,2020.1.3,Win32,60,60462d2f8138f40887a79fc4,,,s,1,0.455875,0,115,115,12,1,1,,
,,,,,,,,,,,,,,,,,,,,,,,,images/24impossible.bmp,images/24impossible.bmp,images/24impossible.bmp,,,,,,,,,,,,,,,images/24impossible.bmp,,,,,,,,,,,d,impossible,0,0,288,216,144,72,0,288,216,144,72,0,288,216,144,72,288,288,216,144,72,0,288,216,144,72,0,288,216,144,72,0,60401d29ac48a7206efa723b,60464aa337e6200dda73e714,2021-03-08_17h03.22.842,Impossible2021,2020.1.3,Win32,60,60462d2f8138f40887a79fc4,,,s,0,0.929075,0,116,116,58,1,3,,
,,,,,,,,,,,,,,,,,,,,,,,,,,,images/25possible.bmp,images/25possible.bmp,images/25possible.bmp,images/25possible.bmp,,,,,,,,,,,,,,,images/25possible.bmp,,,,,,,s,possible,72,72,0,288,216,144,72,0,288,216,144,72,0,288,216,144,72,72,0,288,216,144,72,0,288,216,144,72,0,288,216,144,60401d29ac48a7206efa723b,60464aa337e6200dda73e714,2021-03-08_17h03.22.842,Impossible2021,2020.1.3,Win32,60,60462d2f8138f40887a79fc4,,,s,1,1.00645,0,117,117,77,1,4,,
,,,,,,,,,,,,,,,,,,,,,,images/44impossible.bmp,images/44impossible.bmp,,,,,,,,,,,,,,,images/44impossible.bmp,,,,,,,,,,,,,,d,impossible,216,216,144,72,0,288,216,144,72,0,288,216,144,72,0,288,144,144,72,0,288,216,144,72,0,288,216,144,72,0,288,216,60401d29ac48a7206efa723b,60464aa337e6200dda73e714,2021-03-08_17h03.22.842,Impossible2021,2020.1.3,Win32,60,60462d2f8138f40887a79fc4,,,d,1,1.24567,0,118,118,44,1,2,,
,,,,,,,,,,,,,,,,,,,,,,,,,,,,,,,images/22impossible.bmp,images/22impossible.bmp,images/22impossible.bmp,images/22impossible.bmp,images/22impossible.bmp,,,,,,,,,,,,,,images/22impossible.bmp,,,d,impossible,216,216,144,72,0,288,216,144,72,0,288,216,144,72,0,288,144,144,72,0,288,216,144,72,0,288,216,144,72,0,288,216,60401d29ac48a7206efa723b,60464aa337e6200dda73e714,2021-03-08_17h03.22.842,Impossible2021,2020.1.3,Win32,60,60462d2f8138f40887a79fc4,,,d,1,1.808215,0,119,119,105,1,5,,
,,,,,,,,,,,,,,,,,,,,,,,,,,,,,,,,,,,,,,,,,,,,,,,,,,,,,,,,,,,,,,,,,,,,,,,,,,,,,,,,,,,,,,60401d29ac48a7206efa723b,60464aa337e6200dda73e714,2021-03-08_17h03.22.842,Impossible2021,2020.1.3,Win32,60,60462d2f8138f40887a79fc4,,,,,,,,,,,,k,8.18133
