consent_key.keys,consent_key.rt,intro_key_2.keys,intro_key_2.rt,key_resp_4.keys,key_resp_4.rt,key_resp_5.keys,key_resp_5.rt,key_resp_6.keys,key_resp_6.rt,key_resp_7.keys,key_resp_7.rt,keyTraining.keys,keyTraining.corr,keyTraining.rt,practiceloop.thisRepN,practiceloop.thisTrialN,practiceloop.thisN,practiceloop.thisIndex,practiceloop.ran,s11,s1_1,s12,s22,s13,s23,s33,s14,s24,s34,s44,s15,s25,s35,s45,s55,t11,t1_1,t12,t22,t13,t23,t33,t14,t24,t34,t44,t15,t25,t35,t45,t55,corrans,study,o11,o1_1,o12,o22,o13,o23,o33,o14,o24,o34,o44,o15,o25,o35,o45,o55,ot11,ot1_1,ot12,ot22,ot13,ot23,ot33,ot14,ot24,ot34,ot44,ot15,ot25,ot35,ot45,ot55,participant,date,expName,psychopyVersion,OS,frameRate,key_resp_2.keys,key_resp_2.rt,key_resp.keys,key_resp.corr,key_resp.rt,testloop.thisRepN,testloop.thisTrialN,testloop.thisN,testloop.thisIndex,testloop.ran,setsize,key_resp_3.keys,key_resp_3.rt
y,1.65543,space,9.19697,space,4.61475,s,7.477045,d,3.654915,space,2.99748,s,1,0.730335,0,0,0,0,1,images/06impossible.bmp,,,,,,,,,,,,,,,,images/06impossible.bmp,,,,,,,,,,,,,,,,s,,0,0,288,216,144,72,0,288,216,144,72,0,288,216,144,72,0,0,288,216,144,72,0,288,216,144,72,0,288,216,144,72,peter t,2021-02-26_09h28.00.292,Impossible2021,2020.1.3,Win32,60,,,,,,,,,,,,,
,,,,,,,,,,,,d,1,0.54723,0,1,1,1,1,,images/06impossible.bmp,,,,,,,,,,,,,,,,images/06impossible.bmp,,,,,,,,,,,,,,,d,,216,216,144,72,0,288,216,144,72,0,288,216,144,72,0,288,144,144,72,0,288,216,144,72,0,288,216,144,72,0,288,216,peter t,2021-02-26_09h28.00.292,Impossible2021,2020.1.3,Win32,60,,,,,,,,,,,,,
,,,,,,,,,,,,s,1,0.923275,0,2,2,2,1,,,images/06impossible.bmp,images/06impossible.bmp,,,,,,,,,,,,,,,,images/06impossible.bmp,,,,,,,,,,,,,s,,288,288,216,144,72,0,288,216,144,72,0,288,216,144,72,0,288,288,216,144,72,0,288,216,144,72,0,288,216,144,72,0,peter t,2021-02-26_09h28.00.292,Impossible2021,2020.1.3,Win32,60,,,,,,,,,,,,,
,,,,,,,,,,,,d,1,0.92057,0,3,3,3,1,,,images/06impossible.bmp,images/06impossible.bmp,,,,,,,,,,,,,,,images/06impossible.bmp,,,,,,,,,,,,,,d,,144,144,72,0,288,216,144,72,0,288,216,144,72,0,288,216,72,72,0,288,216,144,72,0,288,216,144,72,0,288,216,144,peter t,2021-02-26_09h28.00.292,Impossible2021,2020.1.3,Win32,60,,,,,,,,,,,,,
,,,,,,,,,,,,s,1,0.854155,0,4,4,4,1,,,,,images/06impossible.bmp,images/06impossible.bmp,images/06impossible.bmp,,,,,,,,,,,,,,images/06impossible.bmp,,,,,,,,,,,,s,,216,216,144,72,0,288,216,144,72,0,288,216,144,72,0,288,216,216,144,72,0,288,216,144,72,0,288,216,144,72,0,288,peter t,2021-02-26_09h28.00.292,Impossible2021,2020.1.3,Win32,60,,,,,,,,,,,,,
,,,,,,,,,,,,d,1,1.058695,0,5,5,5,1,,,,,images/06impossible.bmp,images/06impossible.bmp,images/06impossible.bmp,,,,,,,,,,,,,,,,images/06impossible.bmp,,,,,,,,,,d,,216,216,144,72,0,288,216,144,72,0,288,216,144,72,0,288,144,144,72,0,288,216,144,72,0,288,216,144,72,0,288,216,peter t,2021-02-26_09h28.00.292,Impossible2021,2020.1.3,Win32,60,,,,,,,,,,,,,
,,,,,,,,,,,,,,,,,,,,,,,,images/03impossible.bmp,images/03impossible.bmp,images/03impossible.bmp,,,,,,,,,,,,,,,images/03impossible.bmp,,,,,,,,,,,d,impossible,72,72,0,288,216,144,72,0,288,216,144,72,0,288,216,144,0,0,288,216,144,72,0,288,216,144,72,0,288,216,144,72,peter t,2021-02-26_09h28.00.292,Impossible2021,2020.1.3,Win32,60,space,0.908345,s,0,1.92779,0,0,0,54,1,3,,
,,,,,,,,,,,,,,,,,,,,,,images/44impossible.bmp,images/44impossible.bmp,,,,,,,,,,,,,,,images/44impossible.bmp,,,,,,,,,,,,,,d,impossible,216,216,144,72,0,288,216,144,72,0,288,216,144,72,0,288,144,144,72,0,288,216,144,72,0,288,216,144,72,0,288,216,peter t,2021-02-26_09h28.00.292,Impossible2021,2020.1.3,Win32,60,,,d,1,0.73299,0,1,1,44,1,2,,
,,,,,,,,,,,,,,,,,,,,,images/69possible.bmp,,,,,,,,,,,,,,,,images/69possible.bmp,,,,,,,,,,,,,,,s,possible,216,216,144,72,0,288,216,144,72,0,288,216,144,72,0,288,216,216,144,72,0,288,216,144,72,0,288,216,144,72,0,288,peter t,2021-02-26_09h28.00.292,Impossible2021,2020.1.3,Win32,60,,,s,1,0.72385,0,2,2,17,1,1,,
,,,,,,,,,,,,,,,,,,,,,,,,,,,images/38impossible.bmp,images/38impossible.bmp,images/38impossible.bmp,images/38impossible.bmp,,,,,,,,,,,,,images/38impossible.bmp,,,,,,,,,s,impossible,72,72,0,288,216,144,72,0,288,216,144,72,0,288,216,144,72,72,0,288,216,144,72,0,288,216,144,72,0,288,216,144,peter t,2021-02-26_09h28.00.292,Impossible2021,2020.1.3,Win32,60,,,d,0,1.0515,0,3,3,84,1,4,,
,,,,,,,,,,,,,,,,,,,,,,,,images/44possible.bmp,images/44possible.bmp,images/44possible.bmp,,,,,,,,,,,,,,,,images/44possible.bmp,,,,,,,,,,s,possible,216,216,144,72,0,288,216,144,72,0,288,216,144,72,0,288,216,216,144,72,0,288,216,144,72,0,288,216,144,72,0,288,peter t,2021-02-26_09h28.00.292,Impossible2021,2020.1.3,Win32,60,,,s,1,1.59781,0,4,4,62,1,3,,
,,,,,,,,,,,,,,,,,,,,,,,,images/65possible.bmp,images/65possible.bmp,images/65possible.bmp,,,,,,,,,,,,,,,images/65possible.bmp,,,,,,,,,,,s,possible,144,144,72,0,288,216,144,72,0,288,216,144,72,0,288,216,144,144,72,0,288,216,144,72,0,288,216,144,72,0,288,216,peter t,2021-02-26_09h28.00.292,Impossible2021,2020.1.3,Win32,60,,,s,1,1.035005,0,5,5,64,1,3,,
,,,,,,,,,,,,,,,,,,,,,images/03impossible.bmp,,,,,,,,,,,,,,,,images/03impossible.bmp,,,,,,,,,,,,,,,d,impossible,72,72,0,288,216,144,72,0,288,216,144,72,0,288,216,144,0,0,288,216,144,72,0,288,216,144,72,0,288,216,144,72,peter t,2021-02-26_09h28.00.292,Impossible2021,2020.1.3,Win32,60,,,d,1,0.911005,0,6,6,6,1,1,,
,,,,,,,,,,,,,,,,,,,,,,images/08possible.bmp,images/08possible.bmp,,,,,,,,,,,,,,,images/08possible.bmp,,,,,,,,,,,,,,s,possible,288,288,216,144,72,0,288,216,144,72,0,288,216,144,72,0,288,288,216,144,72,0,288,216,144,72,0,288,216,144,72,0,peter t,2021-02-26_09h28.00.292,Impossible2021,2020.1.3,Win32,60,,,s,1,0.942235,0,7,7,26,1,2,,
,,,,,,,,,,,,,,,,,,,,,,,,images/69possible.bmp,images/69possible.bmp,images/69possible.bmp,,,,,,,,,,,,,,images/69possible.bmp,,,,,,,,,,,,d,possible,216,216,144,72,0,288,216,144,72,0,288,216,144,72,0,288,144,144,72,0,288,216,144,72,0,288,216,144,72,0,288,216,peter t,2021-02-26_09h28.00.292,Impossible2021,2020.1.3,Win32,60,,,d,1,2.05879,0,8,8,71,1,3,,
,,,,,,,,,,,,,,,,,,,,images/44possible.bmp,,,,,,,,,,,,,,,,images/44possible.bmp,,,,,,,,,,,,,,,,s,possible,216,216,144,72,0,288,216,144,72,0,288,216,144,72,0,288,216,216,144,72,0,288,216,144,72,0,288,216,144,72,0,288,peter t,2021-02-26_09h28.00.292,Impossible2021,2020.1.3,Win32,60,,,d,0,0.855975,0,9,9,14,1,1,,
,,,,,,,,,,,,,,,,,,,,,,,,images/42possible.bmp,images/42possible.bmp,images/42possible.bmp,,,,,,,,,,,,,,images/42possible.bmp,,,,,,,,,,,,d,possible,144,144,72,0,288,216,144,72,0,288,216,144,72,0,288,216,72,72,0,288,216,144,72,0,288,216,144,72,0,288,216,144,peter t,2021-02-26_09h28.00.292,Impossible2021,2020.1.3,Win32,60,,,d,1,1.84967,0,10,10,67,1,3,,
,,,,,,,,,,,,,,,,,,,,,,,,images/24impossible.bmp,images/24impossible.bmp,images/24impossible.bmp,,,,,,,,,,,,,,,images/24impossible.bmp,,,,,,,,,,,d,impossible,0,0,288,216,144,72,0,288,216,144,72,0,288,216,144,72,288,288,216,144,72,0,288,216,144,72,0,288,216,144,72,0,peter t,2021-02-26_09h28.00.292,Impossible2021,2020.1.3,Win32,60,,,d,1,1.181105,0,11,11,58,1,3,,
,,,,,,,,,,,,,,,,,,,,,,images/22possible.bmp,images/22possible.bmp,,,,,,,,,,,,,,,,images/22possible.bmp,,,,,,,,,,,,,s,possible,216,216,144,72,0,288,216,144,72,0,288,216,144,72,0,288,216,216,144,72,0,288,216,144,72,0,288,216,144,72,0,288,peter t,2021-02-26_09h28.00.292,Impossible2021,2020.1.3,Win32,60,,,d,0,1.11541,0,12,12,27,1,2,,
,,,,,,,,,,,,,,,,,,,,,,,,images/05impossible.bmp,images/05impossible.bmp,images/05impossible.bmp,,,,,,,,,,,,,,,,images/05impossible.bmp,,,,,,,,,,d,impossible,216,216,144,72,0,288,216,144,72,0,288,216,144,72,0,288,144,144,72,0,288,216,144,72,0,288,216,144,72,0,288,216,peter t,2021-02-26_09h28.00.292,Impossible2021,2020.1.3,Win32,60,,,d,1,1.01176,0,13,13,55,1,3,,
,,,,,,,,,,,,,,,,,,,,,,images/44impossible.bmp,images/44impossible.bmp,,,,,,,,,,,,,,,images/44impossible.bmp,,,,,,,,,,,,,,s,impossible,216,216,144,72,0,288,216,144,72,0,288,216,144,72,0,288,216,216,144,72,0,288,216,144,72,0,288,216,144,72,0,288,peter t,2021-02-26_09h28.00.292,Impossible2021,2020.1.3,Win32,60,,,d,0,1.39256,0,14,14,38,1,2,,
,,,,,,,,,,,,,,,,,,,,,,,,images/38possible.bmp,images/38possible.bmp,images/38possible.bmp,,,,,,,,,,,,,,,images/38possible.bmp,,,,,,,,,,,s,possible,72,72,0,288,216,144,72,0,288,216,144,72,0,288,216,144,72,72,0,288,216,144,72,0,288,216,144,72,0,288,216,144,peter t,2021-02-26_09h28.00.292,Impossible2021,2020.1.3,Win32,60,,,s,1,1.0738,0,15,15,60,1,3,,
,,,,,,,,,,,,,,,,,,,,,,images/65impossible.bmp,images/65impossible.bmp,,,,,,,,,,,,,,,images/65impossible.bmp,,,,,,,,,,,,,,s,impossible,144,144,72,0,288,216,144,72,0,288,216,144,72,0,288,216,144,144,72,0,288,216,144,72,0,288,216,144,72,0,288,216,peter t,2021-02-26_09h28.00.292,Impossible2021,2020.1.3,Win32,60,,,s,1,0.751175,0,16,16,40,1,2,,
,,,,,,,,,,,,,,,,,,,,images/22impossible.bmp,,,,,,,,,,,,,,,,images/22impossible.bmp,,,,,,,,,,,,,,,,d,impossible,216,216,144,72,0,288,216,144,72,0,288,216,144,72,0,288,144,144,72,0,288,216,144,72,0,288,216,144,72,0,288,216,peter t,2021-02-26_09h28.00.292,Impossible2021,2020.1.3,Win32,60,,,d,1,0.810435,0,17,17,9,1,1,,
,,,,,,,,,,,,,,,,,,,,,,,,,,,,,,,images/42possible.bmp,images/42possible.bmp,images/42possible.bmp,images/42possible.bmp,images/42possible.bmp,,,,,,,,,,,,,images/42possible.bmp,,,,s,possible,144,144,72,0,288,216,144,72,0,288,216,144,72,0,288,216,144,144,72,0,288,216,144,72,0,288,216,144,72,0,288,216,peter t,2021-02-26_09h28.00.292,Impossible2021,2020.1.3,Win32,60,,,s,1,1.34678,0,18,18,109,1,5,,
,,,,,,,,,,,,,,,,,,,,,,,,,,,,,,,images/69possible.bmp,images/69possible.bmp,images/69possible.bmp,images/69possible.bmp,images/69possible.bmp,,,,,,,,,,,,,,images/69possible.bmp,,,s,possible,216,216,144,72,0,288,216,144,72,0,288,216,144,72,0,288,216,216,144,72,0,288,216,144,72,0,288,216,144,72,0,288,peter t,2021-02-26_09h28.00.292,Impossible2021,2020.1.3,Win32,60,,,s,1,0.70347,0,19,19,113,1,5,,
,,,,,,,,,,,,,,,,,,,,,,images/24possible.bmp,images/24possible.bmp,,,,,,,,,,,,,,,images/24possible.bmp,,,,,,,,,,,,,,s,possible,0,0,288,216,144,72,0,288,216,144,72,0,288,216,144,72,0,0,288,216,144,72,0,288,216,144,72,0,288,216,144,72,peter t,2021-02-26_09h28.00.292,Impossible2021,2020.1.3,Win32,60,,,d,0,0.71395,0,20,20,28,1,2,,
,,,,,,,,,,,,,,,,,,,,,images/08impossible.bmp,,,,,,,,,,,,,,,,images/08impossible.bmp,,,,,,,,,,,,,,,s,impossible,288,288,216,144,72,0,288,216,144,72,0,288,216,144,72,0,288,288,216,144,72,0,288,216,144,72,0,288,216,144,72,0,peter t,2021-02-26_09h28.00.292,Impossible2021,2020.1.3,Win32,60,,,d,0,2.046145,0,21,21,2,1,1,,
,,,,,,,,,,,,,,,,,,,,,,,,,,,images/65impossible.bmp,images/65impossible.bmp,images/65impossible.bmp,images/65impossible.bmp,,,,,,,,,,,,,,,images/65impossible.bmp,,,,,,,d,impossible,144,144,72,0,288,216,144,72,0,288,216,144,72,0,288,216,72,72,0,288,216,144,72,0,288,216,144,72,0,288,216,144,peter t,2021-02-26_09h28.00.292,Impossible2021,2020.1.3,Win32,60,,,s,0,1.12762,0,22,22,94,1,4,,
,,,,,,,,,,,,,,,,,,,,images/05impossible.bmp,,,,,,,,,,,,,,,,images/05impossible.bmp,,,,,,,,,,,,,,,,s,impossible,216,216,144,72,0,288,216,144,72,0,288,216,144,72,0,288,216,216,144,72,0,288,216,144,72,0,288,216,144,72,0,288,peter t,2021-02-26_09h28.00.292,Impossible2021,2020.1.3,Win32,60,,,s,1,0.836575,0,23,23,1,1,1,,
,,,,,,,,,,,,,,,,,,,,,,,,,,,,,,,images/08impossible.bmp,images/08impossible.bmp,images/08impossible.bmp,images/08impossible.bmp,images/08impossible.bmp,,,,,,,,,,,,,,,,images/08impossible.bmp,s,impossible,288,288,216,144,72,0,288,216,144,72,0,288,216,144,72,0,288,288,216,144,72,0,288,216,144,72,0,288,216,144,72,0,peter t,2021-02-26_09h28.00.292,Impossible2021,2020.1.3,Win32,60,,,d,0,1.005085,0,24,24,98,1,5,,
,,,,,,,,,,,,,,,,,,,,,,images/03possible.bmp,images/03possible.bmp,,,,,,,,,,,,,,,images/03possible.bmp,,,,,,,,,,,,,,s,possible,72,72,0,288,216,144,72,0,288,216,144,72,0,288,216,144,72,72,0,288,216,144,72,0,288,216,144,72,0,288,216,144,peter t,2021-02-26_09h28.00.292,Impossible2021,2020.1.3,Win32,60,,,s,1,0.587035,0,25,25,24,1,2,,
,,,,,,,,,,,,,,,,,,,,,,,,,,,,,,,images/08impossible.bmp,images/08impossible.bmp,images/08impossible.bmp,images/08impossible.bmp,images/08impossible.bmp,,,,,,,,,,,,,images/08impossible.bmp,,,,d,impossible,288,288,216,144,72,0,288,216,144,72,0,288,216,144,72,0,216,216,144,72,0,288,216,144,72,0,288,216,144,72,0,288,peter t,2021-02-26_09h28.00.292,Impossible2021,2020.1.3,Win32,60,,,s,0,0.683015,0,26,26,104,1,5,,
,,,,,,,,,,,,,,,,,,,,,,,,,,,,,,,images/65possible.bmp,images/65possible.bmp,images/65possible.bmp,images/65possible.bmp,images/65possible.bmp,,,,,,,,,,,,,,,images/65possible.bmp,,s,possible,144,144,72,0,288,216,144,72,0,288,216,144,72,0,288,216,144,144,72,0,288,216,144,72,0,288,216,144,72,0,288,216,peter t,2021-02-26_09h28.00.292,Impossible2021,2020.1.3,Win32,60,,,s,1,1.23097,0,27,27,112,1,5,,
,,,,,,,,,,,,,,,,,,,,,,,,,,,images/38impossible.bmp,images/38impossible.bmp,images/38impossible.bmp,images/38impossible.bmp,,,,,,,,,,,,,,,images/38impossible.bmp,,,,,,,d,impossible,72,72,0,288,216,144,72,0,288,216,144,72,0,288,216,144,0,0,288,216,144,72,0,288,216,144,72,0,288,216,144,72,peter t,2021-02-26_09h28.00.292,Impossible2021,2020.1.3,Win32,60,,,s,0,0.55951,0,28,28,90,1,4,,
,,,,,,,,,,,,,,,,,,,,,,,,,,,,,,,images/22impossible.bmp,images/22impossible.bmp,images/22impossible.bmp,images/22impossible.bmp,images/22impossible.bmp,,,,,,,,,,,,,images/22impossible.bmp,,,,s,impossible,216,216,144,72,0,288,216,144,72,0,288,216,144,72,0,288,216,216,144,72,0,288,216,144,72,0,288,216,144,72,0,288,peter t,2021-02-26_09h28.00.292,Impossible2021,2020.1.3,Win32,60,,,d,0,1.30199,0,29,29,99,1,5,,
,,,,,,,,,,,,,,,,,,,,,images/25impossible.bmp,,,,,,,,,,,,,,,,images/25impossible.bmp,,,,,,,,,,,,,,,d,impossible,72,72,0,288,216,144,72,0,288,216,144,72,0,288,216,144,0,0,288,216,144,72,0,288,216,144,72,0,288,216,144,72,peter t,2021-02-26_09h28.00.292,Impossible2021,2020.1.3,Win32,60,,,d,1,1.78058,0,30,30,11,1,1,,
,,,,,,,,,,,,,,,,,,,,,,images/55impossible.bmp,images/55impossible.bmp,,,,,,,,,,,,,,,,images/55impossible.bmp,,,,,,,,,,,,,s,impossible,72,72,0,288,216,144,72,0,288,216,144,72,0,288,216,144,72,72,0,288,216,144,72,0,288,216,144,72,0,288,216,144,peter t,2021-02-26_09h28.00.292,Impossible2021,2020.1.3,Win32,60,,,s,1,1.0668,0,31,31,39,1,2,,
,,,,,,,,,,,,,,,,,,,,,,,,,,,,,,,images/65possible.bmp,images/65possible.bmp,images/65possible.bmp,images/65possible.bmp,images/65possible.bmp,,,,,,,,,,,,,images/65possible.bmp,,,,d,possible,144,144,72,0,288,216,144,72,0,288,216,144,72,0,288,216,72,72,0,288,216,144,72,0,288,216,144,72,0,288,216,144,peter t,2021-02-26_09h28.00.292,Impossible2021,2020.1.3,Win32,60,,,d,1,0.908055,0,32,32,118,1,5,,
,,,,,,,,,,,,,,,,,,,,,,,,,,,,,,,images/42possible.bmp,images/42possible.bmp,images/42possible.bmp,images/42possible.bmp,images/42possible.bmp,,,,,,,,,,,,,,,images/42possible.bmp,,d,possible,144,144,72,0,288,216,144,72,0,288,216,144,72,0,288,216,72,72,0,288,216,144,72,0,288,216,144,72,0,288,216,144,peter t,2021-02-26_09h28.00.292,Impossible2021,2020.1.3,Win32,60,,,s,0,0.895335,0,33,33,115,1,5,,
,,,,,,,,,,,,,,,,,,,,,,,,,,,,,,,images/69possible.bmp,images/69possible.bmp,images/69possible.bmp,images/69possible.bmp,images/69possible.bmp,,,,,,,,,,,,,,images/69possible.bmp,,,d,possible,216,216,144,72,0,288,216,144,72,0,288,216,144,72,0,288,144,144,72,0,288,216,144,72,0,288,216,144,72,0,288,216,peter t,2021-02-26_09h28.00.292,Impossible2021,2020.1.3,Win32,60,,,s,0,0.766545,0,34,34,119,1,5,,
,,,,,,,,,,,,,,,,,,,,,,,,,,,images/24possible.bmp,images/24possible.bmp,images/24possible.bmp,images/24possible.bmp,,,,,,,,,,,,,,,,images/24possible.bmp,,,,,,d,possible,0,0,288,216,144,72,0,288,216,144,72,0,288,216,144,72,288,288,216,144,72,0,288,216,144,72,0,288,216,144,72,0,peter t,2021-02-26_09h28.00.292,Impossible2021,2020.1.3,Win32,60,,,s,0,1.238975,0,35,35,82,1,4,,
,,,,,,,,,,,,,,,,,,,,,,,,,,,images/69impossible.bmp,images/69impossible.bmp,images/69impossible.bmp,images/69impossible.bmp,,,,,,,,,,,,,,images/69impossible.bmp,,,,,,,,d,impossible,216,216,144,72,0,288,216,144,72,0,288,216,144,72,0,288,144,144,72,0,288,216,144,72,0,288,216,144,72,0,288,216,peter t,2021-02-26_09h28.00.292,Impossible2021,2020.1.3,Win32,60,,,s,0,0.92146,0,36,36,95,1,4,,
,,,,,,,,,,,,,,,,,,,,images/25impossible.bmp,,,,,,,,,,,,,,,,images/25impossible.bmp,,,,,,,,,,,,,,,,s,impossible,72,72,0,288,216,144,72,0,288,216,144,72,0,288,216,144,72,72,0,288,216,144,72,0,288,216,144,72,0,288,216,144,peter t,2021-02-26_09h28.00.292,Impossible2021,2020.1.3,Win32,60,,,s,1,0.591925,0,37,37,5,1,1,,
,,,,,,,,,,,,,,,,,,,,,,,,,,,images/55impossible.bmp,images/55impossible.bmp,images/55impossible.bmp,images/55impossible.bmp,,,,,,,,,,,,,,images/55impossible.bmp,,,,,,,,s,impossible,72,72,0,288,216,144,72,0,288,216,144,72,0,288,216,144,72,72,0,288,216,144,72,0,288,216,144,72,0,288,216,144,peter t,2021-02-26_09h28.00.292,Impossible2021,2020.1.3,Win32,60,,,d,0,1.11724,0,38,38,87,1,4,,
,,,,,,,,,,,,,,,,,,,,,images/44possible.bmp,,,,,,,,,,,,,,,,images/44possible.bmp,,,,,,,,,,,,,,,d,possible,216,216,144,72,0,288,216,144,72,0,288,216,144,72,0,288,144,144,72,0,288,216,144,72,0,288,216,144,72,0,288,216,peter t,2021-02-26_09h28.00.292,Impossible2021,2020.1.3,Win32,60,,,d,1,1.597555,0,39,39,20,1,1,,
,,,,,,,,,,,,,,,,,,,,,,,,,,,,,,,images/55possible.bmp,images/55possible.bmp,images/55possible.bmp,images/55possible.bmp,images/55possible.bmp,,,,,,,,,,,,images/55possible.bmp,,,,,d,possible,72,72,0,288,216,144,72,0,288,216,144,72,0,288,216,144,0,0,288,216,144,72,0,288,216,144,72,0,288,216,144,72,peter t,2021-02-26_09h28.00.292,Impossible2021,2020.1.3,Win32,60,,,s,0,0.964045,0,40,40,117,1,5,,
,,,,,,,,,,,,,,,,,,,,,,images/08possible.bmp,images/08possible.bmp,,,,,,,,,,,,,,,images/08possible.bmp,,,,,,,,,,,,,,d,possible,288,288,216,144,72,0,288,216,144,72,0,288,216,144,72,0,216,216,144,72,0,288,216,144,72,0,288,216,144,72,0,288,peter t,2021-02-26_09h28.00.292,Impossible2021,2020.1.3,Win32,60,,,d,1,1.0902,0,41,41,32,1,2,,
,,,,,,,,,,,,,,,,,,,,,,,,,,,images/55impossible.bmp,images/55impossible.bmp,images/55impossible.bmp,images/55impossible.bmp,,,,,,,,,,,,,,,,images/55impossible.bmp,,,,,,d,impossible,72,72,0,288,216,144,72,0,288,216,144,72,0,288,216,144,0,0,288,216,144,72,0,288,216,144,72,0,288,216,144,72,peter t,2021-02-26_09h28.00.292,Impossible2021,2020.1.3,Win32,60,,,d,1,0.99699,0,42,42,93,1,4,,
,,,,,,,,,,,,,,,,,,,,,images/65possible.bmp,,,,,,,,,,,,,,,,images/65possible.bmp,,,,,,,,,,,,,,,d,possible,144,144,72,0,288,216,144,72,0,288,216,144,72,0,288,216,72,72,0,288,216,144,72,0,288,216,144,72,0,288,216,144,peter t,2021-02-26_09h28.00.292,Impossible2021,2020.1.3,Win32,60,,,d,1,0.528015,0,43,43,22,1,1,,
,,,,,,,,,,,,,,,,,,,,,,,,images/55possible.bmp,images/55possible.bmp,images/55possible.bmp,,,,,,,,,,,,,,,images/55possible.bmp,,,,,,,,,,,d,possible,72,72,0,288,216,144,72,0,288,216,144,72,0,288,216,144,0,0,288,216,144,72,0,288,216,144,72,0,288,216,144,72,peter t,2021-02-26_09h28.00.292,Impossible2021,2020.1.3,Win32,60,,,d,1,0.97255,0,44,44,69,1,3,,
,,,,,,,,,,,,,,,,,,,,,,,,,,,,,,,images/44possible.bmp,images/44possible.bmp,images/44possible.bmp,images/44possible.bmp,images/44possible.bmp,,,,,,,,,,,,,,images/44possible.bmp,,,d,possible,216,216,144,72,0,288,216,144,72,0,288,216,144,72,0,288,144,144,72,0,288,216,144,72,0,288,216,144,72,0,288,216,peter t,2021-02-26_09h28.00.292,Impossible2021,2020.1.3,Win32,60,,,d,1,1.01684,0,45,45,116,1,5,,
,,,,,,,,,,,,,,,,,,,,,,,,,,,images/08possible.bmp,images/08possible.bmp,images/08possible.bmp,images/08possible.bmp,,,,,,,,,,,,,images/08possible.bmp,,,,,,,,,d,possible,288,288,216,144,72,0,288,216,144,72,0,288,216,144,72,0,216,216,144,72,0,288,216,144,72,0,288,216,144,72,0,288,peter t,2021-02-26_09h28.00.292,Impossible2021,2020.1.3,Win32,60,,,d,1,1.765915,0,46,46,80,1,4,,
,,,,,,,,,,,,,,,,,,,,,,images/65impossible.bmp,images/65impossible.bmp,,,,,,,,,,,,,,,images/65impossible.bmp,,,,,,,,,,,,,,d,impossible,144,144,72,0,288,216,144,72,0,288,216,144,72,0,288,216,72,72,0,288,216,144,72,0,288,216,144,72,0,288,216,144,peter t,2021-02-26_09h28.00.292,Impossible2021,2020.1.3,Win32,60,,,s,0,0.786975,0,47,47,46,1,2,,
,,,,,,,,,,,,,,,,,,,,,,,,,,,images/03possible.bmp,images/03possible.bmp,images/03possible.bmp,images/03possible.bmp,,,,,,,,,,,,,,,,images/03possible.bmp,,,,,,d,possible,72,72,0,288,216,144,72,0,288,216,144,72,0,288,216,144,0,0,288,216,144,72,0,288,216,144,72,0,288,216,144,72,peter t,2021-02-26_09h28.00.292,Impossible2021,2020.1.3,Win32,60,,,d,1,1.069015,0,48,48,78,1,4,,
,,,,,,,,,,,,,,,,,,,,,,,,,,,,,,,images/24impossible.bmp,images/24impossible.bmp,images/24impossible.bmp,images/24impossible.bmp,images/24impossible.bmp,,,,,,,,,,,,,,,,images/24impossible.bmp,d,impossible,0,0,288,216,144,72,0,288,216,144,72,0,288,216,144,72,288,288,216,144,72,0,288,216,144,72,0,288,216,144,72,0,peter t,2021-02-26_09h28.00.292,Impossible2021,2020.1.3,Win32,60,,,d,1,1.103235,0,49,49,106,1,5,,
,,,,,,,,,,,,,,,,,,,,,images/22impossible.bmp,,,,,,,,,,,,,,,,images/22impossible.bmp,,,,,,,,,,,,,,,s,impossible,216,216,144,72,0,288,216,144,72,0,288,216,144,72,0,288,216,216,144,72,0,288,216,144,72,0,288,216,144,72,0,288,peter t,2021-02-26_09h28.00.292,Impossible2021,2020.1.3,Win32,60,,,s,1,0.74439,0,50,50,3,1,1,,
,,,,,,,,,,,,,,,,,,,,,,,,,,,,,,,images/03impossible.bmp,images/03impossible.bmp,images/03impossible.bmp,images/03impossible.bmp,images/03impossible.bmp,,,,,,,,,,,,,images/03impossible.bmp,,,,s,impossible,72,72,0,288,216,144,72,0,288,216,144,72,0,288,216,144,72,72,0,288,216,144,72,0,288,216,144,72,0,288,216,144,peter t,2021-02-26_09h28.00.292,Impossible2021,2020.1.3,Win32,60,,,s,1,1.02029,0,51,51,96,1,5,,
,,,,,,,,,,,,,,,,,,,,,,,,,,,,,,,images/05impossible.bmp,images/05impossible.bmp,images/05impossible.bmp,images/05impossible.bmp,images/05impossible.bmp,,,,,,,,,,,,,,,images/05impossible.bmp,,s,impossible,216,216,144,72,0,288,216,144,72,0,288,216,144,72,0,288,216,216,144,72,0,288,216,144,72,0,288,216,144,72,0,288,peter t,2021-02-26_09h28.00.292,Impossible2021,2020.1.3,Win32,60,,,s,1,1.043865,0,52,52,97,1,5,,
,,,,,,,,,,,,,,,,,,,,,,,,,,,images/03possible.bmp,images/03possible.bmp,images/03possible.bmp,images/03possible.bmp,,,,,,,,,,,,,,images/03possible.bmp,,,,,,,,s,possible,72,72,0,288,216,144,72,0,288,216,144,72,0,288,216,144,72,72,0,288,216,144,72,0,288,216,144,72,0,288,216,144,peter t,2021-02-26_09h28.00.292,Impossible2021,2020.1.3,Win32,60,,,s,1,0.91011,0,53,53,72,1,4,,
,,,,,,,,,,,,,,,,,,,,,,,,images/42possible.bmp,images/42possible.bmp,images/42possible.bmp,,,,,,,,,,,,,,,,images/42possible.bmp,,,,,,,,,,s,possible,144,144,72,0,288,216,144,72,0,288,216,144,72,0,288,216,144,144,72,0,288,216,144,72,0,288,216,144,72,0,288,216,peter t,2021-02-26_09h28.00.292,Impossible2021,2020.1.3,Win32,60,,,s,1,0.792985,0,54,54,61,1,3,,
,,,,,,,,,,,,,,,,,,,,,,,,,,,,,,,images/05impossible.bmp,images/05impossible.bmp,images/05impossible.bmp,images/05impossible.bmp,images/05impossible.bmp,,,,,,,,,,,,,,images/05impossible.bmp,,,d,impossible,216,216,144,72,0,288,216,144,72,0,288,216,144,72,0,288,144,144,72,0,288,216,144,72,0,288,216,144,72,0,288,216,peter t,2021-02-26_09h28.00.292,Impossible2021,2020.1.3,Win32,60,,,s,0,1.060795,0,55,55,103,1,5,,
,,,,,,,,,,,,,,,,,,,,images/08impossible.bmp,,,,,,,,,,,,,,,,images/08impossible.bmp,,,,,,,,,,,,,,,,d,impossible,288,288,216,144,72,0,288,216,144,72,0,288,216,144,72,0,216,216,144,72,0,288,216,144,72,0,288,216,144,72,0,288,peter t,2021-02-26_09h28.00.292,Impossible2021,2020.1.3,Win32,60,,,d,1,0.609995,0,56,56,8,1,1,,
,,,,,,,,,,,,,,,,,,,,,,,,images/22impossible.bmp,images/22impossible.bmp,images/22impossible.bmp,,,,,,,,,,,,,,,,images/22impossible.bmp,,,,,,,,,,d,impossible,216,216,144,72,0,288,216,144,72,0,288,216,144,72,0,288,144,144,72,0,288,216,144,72,0,288,216,144,72,0,288,216,peter t,2021-02-26_09h28.00.292,Impossible2021,2020.1.3,Win32,60,,,d,1,1.374285,0,57,57,57,1,3,,
,,,,,,,,,,,,,,,,,,,,,,,,,,,,,,,images/24impossible.bmp,images/24impossible.bmp,images/24impossible.bmp,images/24impossible.bmp,images/24impossible.bmp,,,,,,,,,,,,images/24impossible.bmp,,,,,s,impossible,0,0,288,216,144,72,0,288,216,144,72,0,288,216,144,72,0,0,288,216,144,72,0,288,216,144,72,0,288,216,144,72,peter t,2021-02-26_09h28.00.292,Impossible2021,2020.1.3,Win32,60,,,s,1,0.76072,0,58,58,100,1,5,,
,,,,,,,,,,,,,,,,,,,,,,,,images/69possible.bmp,images/69possible.bmp,images/69possible.bmp,,,,,,,,,,,,,,,,images/69possible.bmp,,,,,,,,,,s,possible,216,216,144,72,0,288,216,144,72,0,288,216,144,72,0,288,216,216,144,72,0,288,216,144,72,0,288,216,144,72,0,288,peter t,2021-02-26_09h28.00.292,Impossible2021,2020.1.3,Win32,60,,,d,0,1.407415,0,59,59,65,1,3,,
,,,,,,,,,,,,,,,,,,,,,,images/69impossible.bmp,images/69impossible.bmp,,,,,,,,,,,,,,,,images/69impossible.bmp,,,,,,,,,,,,,d,impossible,216,216,144,72,0,288,216,144,72,0,288,216,144,72,0,288,144,144,72,0,288,216,144,72,0,288,216,144,72,0,288,216,peter t,2021-02-26_09h28.00.292,Impossible2021,2020.1.3,Win32,60,,,d,1,1.090355,0,60,60,47,1,2,,
,,,,,,,,,,,,,,,,,,,,,,,,,,,,,,,images/25impossible.bmp,images/25impossible.bmp,images/25impossible.bmp,images/25impossible.bmp,images/25impossible.bmp,,,,,,,,,,,,,,,,images/25impossible.bmp,d,impossible,72,72,0,288,216,144,72,0,288,216,144,72,0,288,216,144,0,0,288,216,144,72,0,288,216,144,72,0,288,216,144,72,peter t,2021-02-26_09h28.00.292,Impossible2021,2020.1.3,Win32,60,,,d,1,0.956175,0,61,61,107,1,5,,
,,,,,,,,,,,,,,,,,,,,,,images/25possible.bmp,images/25possible.bmp,,,,,,,,,,,,,,,,images/25possible.bmp,,,,,,,,,,,,,s,possible,72,72,0,288,216,144,72,0,288,216,144,72,0,288,216,144,72,72,0,288,216,144,72,0,288,216,144,72,0,288,216,144,peter t,2021-02-26_09h28.00.292,Impossible2021,2020.1.3,Win32,60,,,d,0,1.21603,0,62,62,29,1,2,,
,,,,,,,,,,,,,,,,,,,,,,images/24possible.bmp,images/24possible.bmp,,,,,,,,,,,,,,,images/24possible.bmp,,,,,,,,,,,,,,d,possible,0,0,288,216,144,72,0,288,216,144,72,0,288,216,144,72,288,288,216,144,72,0,288,216,144,72,0,288,216,144,72,0,peter t,2021-02-26_09h28.00.292,Impossible2021,2020.1.3,Win32,60,,,s,0,0.958955,0,63,63,34,1,2,,
,,,,,,,,,,,,,,,,,,,,,,,,images/08impossible.bmp,images/08impossible.bmp,images/08impossible.bmp,,,,,,,,,,,,,,,images/08impossible.bmp,,,,,,,,,,,d,impossible,288,288,216,144,72,0,288,216,144,72,0,288,216,144,72,0,216,216,144,72,0,288,216,144,72,0,288,216,144,72,0,288,peter t,2021-02-26_09h28.00.292,Impossible2021,2020.1.3,Win32,60,,,s,0,1.04152,0,64,64,56,1,3,,
,,,,,,,,,,,,,,,,,,,,,,,,,,,images/25possible.bmp,images/25possible.bmp,images/25possible.bmp,images/25possible.bmp,,,,,,,,,,,,,,images/25possible.bmp,,,,,,,,d,possible,72,72,0,288,216,144,72,0,288,216,144,72,0,288,216,144,0,0,288,216,144,72,0,288,216,144,72,0,288,216,144,72,peter t,2021-02-26_09h28.00.292,Impossible2021,2020.1.3,Win32,60,,,s,0,0.956215,0,65,65,83,1,4,,
,,,,,,,,,,,,,,,,,,,,,,,,images/25impossible.bmp,images/25impossible.bmp,images/25impossible.bmp,,,,,,,,,,,,,,images/25impossible.bmp,,,,,,,,,,,,s,impossible,72,72,0,288,216,144,72,0,288,216,144,72,0,288,216,144,72,72,0,288,216,144,72,0,288,216,144,72,0,288,216,144,peter t,2021-02-26_09h28.00.292,Impossible2021,2020.1.3,Win32,60,,,s,1,0.87703,0,66,66,53,1,3,,
,,,,,,,,,,,,,,,,,,,,,,images/42impossible.bmp,images/42impossible.bmp,,,,,,,,,,,,,,,,images/42impossible.bmp,,,,,,,,,,,,,d,impossible,144,144,72,0,288,216,144,72,0,288,216,144,72,0,288,216,72,72,0,288,216,144,72,0,288,216,144,72,0,288,216,144,peter t,2021-02-26_09h28.00.292,Impossible2021,2020.1.3,Win32,60,,,s,0,0.660715,0,67,67,43,1,2,,
,,,,,,,,,,,,,,,,,,,,,,,,images/24impossible.bmp,images/24impossible.bmp,images/24impossible.bmp,,,,,,,,,,,,,,,images/24impossible.bmp,,,,,,,,,,,s,impossible,0,0,288,216,144,72,0,288,216,144,72,0,288,216,144,72,0,0,288,216,144,72,0,288,216,144,72,0,288,216,144,72,peter t,2021-02-26_09h28.00.292,Impossible2021,2020.1.3,Win32,60,,,s,1,0.594725,0,68,68,52,1,3,,
,,,,,,,,,,,,,,,,,,,,,,,,,,,images/25possible.bmp,images/25possible.bmp,images/25possible.bmp,images/25possible.bmp,,,,,,,,,,,,,,,images/25possible.bmp,,,,,,,s,possible,72,72,0,288,216,144,72,0,288,216,144,72,0,288,216,144,72,72,0,288,216,144,72,0,288,216,144,72,0,288,216,144,peter t,2021-02-26_09h28.00.292,Impossible2021,2020.1.3,Win32,60,,,s,1,0.584125,0,69,69,77,1,4,,
,,,,,,,,,,,,,,,,,,,,,,images/38impossible.bmp,images/38impossible.bmp,,,,,,,,,,,,,,,images/38impossible.bmp,,,,,,,,,,,,,,s,impossible,72,72,0,288,216,144,72,0,288,216,144,72,0,288,216,144,72,72,0,288,216,144,72,0,288,216,144,72,0,288,216,144,peter t,2021-02-26_09h28.00.292,Impossible2021,2020.1.3,Win32,60,,,s,1,0.595135,0,70,70,36,1,2,,
,,,,,,,,,,,,,,,,,,,,,,,,images/08impossible.bmp,images/08impossible.bmp,images/08impossible.bmp,,,,,,,,,,,,,,,images/08impossible.bmp,,,,,,,,,,,s,impossible,288,288,216,144,72,0,288,216,144,72,0,288,216,144,72,0,288,288,216,144,72,0,288,216,144,72,0,288,216,144,72,0,peter t,2021-02-26_09h28.00.292,Impossible2021,2020.1.3,Win32,60,,,d,0,1.16811,0,71,71,50,1,3,,
,,,,,,,,,,,,,,,,,,,,,,images/55impossible.bmp,images/55impossible.bmp,,,,,,,,,,,,,,,,images/55impossible.bmp,,,,,,,,,,,,,d,impossible,72,72,0,288,216,144,72,0,288,216,144,72,0,288,216,144,0,0,288,216,144,72,0,288,216,144,72,0,288,216,144,72,peter t,2021-02-26_09h28.00.292,Impossible2021,2020.1.3,Win32,60,,,d,1,0.648425,0,72,72,45,1,2,,
,,,,,,,,,,,,,,,,,,,,,,,,,,,images/42impossible.bmp,images/42impossible.bmp,images/42impossible.bmp,images/42impossible.bmp,,,,,,,,,,,,,,,,images/42impossible.bmp,,,,,,s,impossible,144,144,72,0,288,216,144,72,0,288,216,144,72,0,288,216,144,144,72,0,288,216,144,72,0,288,216,144,72,0,288,216,peter t,2021-02-26_09h28.00.292,Impossible2021,2020.1.3,Win32,60,,,s,1,0.717105,0,73,73,85,1,4,,
,,,,,,,,,,,,,,,,,,,,,images/24impossible.bmp,,,,,,,,,,,,,,,,images/24impossible.bmp,,,,,,,,,,,,,,,s,impossible,0,0,288,216,144,72,0,288,216,144,72,0,288,216,144,72,0,0,288,216,144,72,0,288,216,144,72,0,288,216,144,72,peter t,2021-02-26_09h28.00.292,Impossible2021,2020.1.3,Win32,60,,,s,1,0.450015,0,74,74,4,1,1,,
,,,,,,,,,,,,,,,,,,,,images/03impossible.bmp,,,,,,,,,,,,,,,,images/03impossible.bmp,,,,,,,,,,,,,,,,s,impossible,72,72,0,288,216,144,72,0,288,216,144,72,0,288,216,144,72,72,0,288,216,144,72,0,288,216,144,72,0,288,216,144,peter t,2021-02-26_09h28.00.292,Impossible2021,2020.1.3,Win32,60,,,s,1,0.519325,0,75,75,0,1,1,,
,,,,,,,,,,,,,,,,,,,,,,,,,,,,,,,images/38possible.bmp,images/38possible.bmp,images/38possible.bmp,images/38possible.bmp,images/38possible.bmp,,,,,,,,,,,,images/38possible.bmp,,,,,s,possible,72,72,0,288,216,144,72,0,288,216,144,72,0,288,216,144,72,72,0,288,216,144,72,0,288,216,144,72,0,288,216,144,peter t,2021-02-26_09h28.00.292,Impossible2021,2020.1.3,Win32,60,,,s,1,1.382855,0,76,76,108,1,5,,
,,,,,,,,,,,,,,,,,,,,,,,,,,,,,,,images/03impossible.bmp,images/03impossible.bmp,images/03impossible.bmp,images/03impossible.bmp,images/03impossible.bmp,,,,,,,,,,,,,,,,images/03impossible.bmp,d,impossible,72,72,0,288,216,144,72,0,288,216,144,72,0,288,216,144,0,0,288,216,144,72,0,288,216,144,72,0,288,216,144,72,peter t,2021-02-26_09h28.00.292,Impossible2021,2020.1.3,Win32,60,,,d,1,0.775835,0,77,77,102,1,5,,
,,,,,,,,,,,,,,,,,,,,,,,,,,,images/05possible.bmp,images/05possible.bmp,images/05possible.bmp,images/05possible.bmp,,,,,,,,,,,,,,,images/05possible.bmp,,,,,,,d,possible,216,216,144,72,0,288,216,144,72,0,288,216,144,72,0,288,144,144,72,0,288,216,144,72,0,288,216,144,72,0,288,216,peter t,2021-02-26_09h28.00.292,Impossible2021,2020.1.3,Win32,60,,,s,0,0.619945,0,78,78,79,1,4,,
,,,,,,,,,,,,,,,,,,,,images/55possible.bmp,,,,,,,,,,,,,,,,images/55possible.bmp,,,,,,,,,,,,,,,,d,possible,72,72,0,288,216,144,72,0,288,216,144,72,0,288,216,144,0,0,288,216,144,72,0,288,216,144,72,0,288,216,144,72,peter t,2021-02-26_09h28.00.292,Impossible2021,2020.1.3,Win32,60,,,d,1,0.50508,0,79,79,21,1,1,,
,,,,,,,,,,,,,,,,,,,,,,,,images/03impossible.bmp,images/03impossible.bmp,images/03impossible.bmp,,,,,,,,,,,,,,,images/03impossible.bmp,,,,,,,,,,,s,impossible,72,72,0,288,216,144,72,0,288,216,144,72,0,288,216,144,72,72,0,288,216,144,72,0,288,216,144,72,0,288,216,144,peter t,2021-02-26_09h28.00.292,Impossible2021,2020.1.3,Win32,60,,,s,1,1.052255,0,80,80,48,1,3,,
,,,,,,,,,,,,,,,,,,,,,,,,,,,images/22possible.bmp,images/22possible.bmp,images/22possible.bmp,images/22possible.bmp,,,,,,,,,,,,,,,images/22possible.bmp,,,,,,,d,possible,216,216,144,72,0,288,216,144,72,0,288,216,144,72,0,288,144,144,72,0,288,216,144,72,0,288,216,144,72,0,288,216,peter t,2021-02-26_09h28.00.292,Impossible2021,2020.1.3,Win32,60,,,s,0,0.95536,0,81,81,81,1,4,,
,,,,,,,,,,,,,,,,,,,,images/24impossible.bmp,,,,,,,,,,,,,,,,images/24impossible.bmp,,,,,,,,,,,,,,,,d,impossible,0,0,288,216,144,72,0,288,216,144,72,0,288,216,144,72,288,288,216,144,72,0,288,216,144,72,0,288,216,144,72,0,peter t,2021-02-26_09h28.00.292,Impossible2021,2020.1.3,Win32,60,,,d,1,0.56201,0,82,82,10,1,1,,
,,,,,,,,,,,,,,,,,,,,,,images/69impossible.bmp,images/69impossible.bmp,,,,,,,,,,,,,,,,images/69impossible.bmp,,,,,,,,,,,,,s,impossible,216,216,144,72,0,288,216,144,72,0,288,216,144,72,0,288,216,216,144,72,0,288,216,144,72,0,288,216,144,72,0,288,peter t,2021-02-26_09h28.00.292,Impossible2021,2020.1.3,Win32,60,,,s,1,0.938345,0,83,83,41,1,2,,
,,,,,,,,,,,,,,,,,,,,images/65possible.bmp,,,,,,,,,,,,,,,,images/65possible.bmp,,,,,,,,,,,,,,,,s,possible,144,144,72,0,288,216,144,72,0,288,216,144,72,0,288,216,144,144,72,0,288,216,144,72,0,288,216,144,72,0,288,216,peter t,2021-02-26_09h28.00.292,Impossible2021,2020.1.3,Win32,60,,,s,1,0.511845,0,84,84,16,1,1,,
,,,,,,,,,,,,,,,,,,,,,,,,images/38possible.bmp,images/38possible.bmp,images/38possible.bmp,,,,,,,,,,,,,,,images/38possible.bmp,,,,,,,,,,,d,possible,72,72,0,288,216,144,72,0,288,216,144,72,0,288,216,144,0,0,288,216,144,72,0,288,216,144,72,0,288,216,144,72,peter t,2021-02-26_09h28.00.292,Impossible2021,2020.1.3,Win32,60,,,s,0,0.697965,0,85,85,66,1,3,,
,,,,,,,,,,,,,,,,,,,,,,images/42impossible.bmp,images/42impossible.bmp,,,,,,,,,,,,,,,,images/42impossible.bmp,,,,,,,,,,,,,s,impossible,144,144,72,0,288,216,144,72,0,288,216,144,72,0,288,216,144,144,72,0,288,216,144,72,0,288,216,144,72,0,288,216,peter t,2021-02-26_09h28.00.292,Impossible2021,2020.1.3,Win32,60,,,s,1,0.557985,0,86,86,37,1,2,,
,,,,,,,,,,,,,,,,,,,,,,,,,,,,,,,images/22impossible.bmp,images/22impossible.bmp,images/22impossible.bmp,images/22impossible.bmp,images/22impossible.bmp,,,,,,,,,,,,,,images/22impossible.bmp,,,d,impossible,216,216,144,72,0,288,216,144,72,0,288,216,144,72,0,288,144,144,72,0,288,216,144,72,0,288,216,144,72,0,288,216,peter t,2021-02-26_09h28.00.292,Impossible2021,2020.1.3,Win32,60,,,d,1,0.798985,0,87,87,105,1,5,,
,,,,,,,,,,,,,,,,,,,,,images/38possible.bmp,,,,,,,,,,,,,,,,images/38possible.bmp,,,,,,,,,,,,,,,d,possible,72,72,0,288,216,144,72,0,288,216,144,72,0,288,216,144,0,0,288,216,144,72,0,288,216,144,72,0,288,216,144,72,peter t,2021-02-26_09h28.00.292,Impossible2021,2020.1.3,Win32,60,,,d,1,0.58634,0,88,88,18,1,1,,
,,,,,,,,,,,,,,,,,,,,,,,,,,,images/42impossible.bmp,images/42impossible.bmp,images/42impossible.bmp,images/42impossible.bmp,,,,,,,,,,,,,,,,images/42impossible.bmp,,,,,,d,impossible,144,144,72,0,288,216,144,72,0,288,216,144,72,0,288,216,72,72,0,288,216,144,72,0,288,216,144,72,0,288,216,144,peter t,2021-02-26_09h28.00.292,Impossible2021,2020.1.3,Win32,60,,,s,0,0.97177,0,89,89,91,1,4,,
,,,,,,,,,,,,,,,,,,,,,,,,images/55possible.bmp,images/55possible.bmp,images/55possible.bmp,,,,,,,,,,,,,,images/55possible.bmp,,,,,,,,,,,,s,possible,72,72,0,288,216,144,72,0,288,216,144,72,0,288,216,144,72,72,0,288,216,144,72,0,288,216,144,72,0,288,216,144,peter t,2021-02-26_09h28.00.292,Impossible2021,2020.1.3,Win32,60,,,s,1,0.713405,0,90,90,63,1,3,,
,,,,,,,,,,,,,,,,,,,,,,,,,,,images/44impossible.bmp,images/44impossible.bmp,images/44impossible.bmp,images/44impossible.bmp,,,,,,,,,,,,,images/44impossible.bmp,,,,,,,,,d,impossible,216,216,144,72,0,288,216,144,72,0,288,216,144,72,0,288,144,144,72,0,288,216,144,72,0,288,216,144,72,0,288,216,peter t,2021-02-26_09h28.00.292,Impossible2021,2020.1.3,Win32,60,,,s,0,1.257055,0,91,91,92,1,4,,
,,,,,,,,,,,,,,,,,,,,,images/42possible.bmp,,,,,,,,,,,,,,,,images/42possible.bmp,,,,,,,,,,,,,,,s,possible,144,144,72,0,288,216,144,72,0,288,216,144,72,0,288,216,144,144,72,0,288,216,144,72,0,288,216,144,72,0,288,216,peter t,2021-02-26_09h28.00.292,Impossible2021,2020.1.3,Win32,60,,,s,1,0.61149,0,92,92,13,1,1,,
,,,,,,,,,,,,,,,,,,,,,,,,,,,images/44impossible.bmp,images/44impossible.bmp,images/44impossible.bmp,images/44impossible.bmp,,,,,,,,,,,,,,,images/44impossible.bmp,,,,,,,s,impossible,216,216,144,72,0,288,216,144,72,0,288,216,144,72,0,288,216,216,144,72,0,288,216,144,72,0,288,216,144,72,0,288,peter t,2021-02-26_09h28.00.292,Impossible2021,2020.1.3,Win32,60,,,s,1,0.63065,0,93,93,86,1,4,,
,,,,,,,,,,,,,,,,,,,,,,images/05possible.bmp,images/05possible.bmp,,,,,,,,,,,,,,,,images/05possible.bmp,,,,,,,,,,,,,s,possible,216,216,144,72,0,288,216,144,72,0,288,216,144,72,0,288,216,216,144,72,0,288,216,144,72,0,288,216,144,72,0,288,peter t,2021-02-26_09h28.00.292,Impossible2021,2020.1.3,Win32,60,,,s,1,0.66949,0,94,94,25,1,2,,
,,,,,,,,,,,,,,,,,,,,,,,,,,,images/65impossible.bmp,images/65impossible.bmp,images/65impossible.bmp,images/65impossible.bmp,,,,,,,,,,,,,,,images/65impossible.bmp,,,,,,,s,impossible,144,144,72,0,288,216,144,72,0,288,216,144,72,0,288,216,144,144,72,0,288,216,144,72,0,288,216,144,72,0,288,216,peter t,2021-02-26_09h28.00.292,Impossible2021,2020.1.3,Win32,60,,,d,0,0.77612,0,95,95,88,1,4,,
,,,,,,,,,,,,,,,,,,,,,,images/38impossible.bmp,images/38impossible.bmp,,,,,,,,,,,,,,,images/38impossible.bmp,,,,,,,,,,,,,,d,impossible,72,72,0,288,216,144,72,0,288,216,144,72,0,288,216,144,0,0,288,216,144,72,0,288,216,144,72,0,288,216,144,72,peter t,2021-02-26_09h28.00.292,Impossible2021,2020.1.3,Win32,60,,,d,1,0.760875,0,96,96,42,1,2,,
,,,,,,,,,,,,,,,,,,,,,images/55possible.bmp,,,,,,,,,,,,,,,,images/55possible.bmp,,,,,,,,,,,,,,,s,possible,72,72,0,288,216,144,72,0,288,216,144,72,0,288,216,144,72,72,0,288,216,144,72,0,288,216,144,72,0,288,216,144,peter t,2021-02-26_09h28.00.292,Impossible2021,2020.1.3,Win32,60,,,s,1,0.510235,0,97,97,15,1,1,,
,,,,,,,,,,,,,,,,,,,,,,,,images/65possible.bmp,images/65possible.bmp,images/65possible.bmp,,,,,,,,,,,,,,images/65possible.bmp,,,,,,,,,,,,d,possible,144,144,72,0,288,216,144,72,0,288,216,144,72,0,288,216,72,72,0,288,216,144,72,0,288,216,144,72,0,288,216,144,peter t,2021-02-26_09h28.00.292,Impossible2021,2020.1.3,Win32,60,,,d,1,0.80597,0,98,98,70,1,3,,
,,,,,,,,,,,,,,,,,,,,,,,,images/05impossible.bmp,images/05impossible.bmp,images/05impossible.bmp,,,,,,,,,,,,,,,,images/05impossible.bmp,,,,,,,,,,s,impossible,216,216,144,72,0,288,216,144,72,0,288,216,144,72,0,288,216,216,144,72,0,288,216,144,72,0,288,216,144,72,0,288,peter t,2021-02-26_09h28.00.292,Impossible2021,2020.1.3,Win32,60,,,s,1,0.75192,0,99,99,49,1,3,,
,,,,,,,,,,,,,,,,,,,,,,,,images/44possible.bmp,images/44possible.bmp,images/44possible.bmp,,,,,,,,,,,,,,images/44possible.bmp,,,,,,,,,,,,d,possible,216,216,144,72,0,288,216,144,72,0,288,216,144,72,0,288,144,144,72,0,288,216,144,72,0,288,216,144,72,0,288,216,peter t,2021-02-26_09h28.00.292,Impossible2021,2020.1.3,Win32,60,,,d,1,0.73691,0,100,100,68,1,3,,
,,,,,,,,,,,,,,,,,,,,,,,,,,,,,,,images/38possible.bmp,images/38possible.bmp,images/38possible.bmp,images/38possible.bmp,images/38possible.bmp,,,,,,,,,,,,,,,,images/38possible.bmp,d,possible,72,72,0,288,216,144,72,0,288,216,144,72,0,288,216,144,0,0,288,216,144,72,0,288,216,144,72,0,288,216,144,72,peter t,2021-02-26_09h28.00.292,Impossible2021,2020.1.3,Win32,60,,,s,0,1.00842,0,101,101,114,1,5,,
,,,,,,,,,,,,,,,,,,,,images/38possible.bmp,,,,,,,,,,,,,,,,images/38possible.bmp,,,,,,,,,,,,,,,,s,possible,72,72,0,288,216,144,72,0,288,216,144,72,0,288,216,144,72,72,0,288,216,144,72,0,288,216,144,72,0,288,216,144,peter t,2021-02-26_09h28.00.292,Impossible2021,2020.1.3,Win32,60,,,s,1,0.611255,0,102,102,12,1,1,,
,,,,,,,,,,,,,,,,,,,,,,,,,,,images/08possible.bmp,images/08possible.bmp,images/08possible.bmp,images/08possible.bmp,,,,,,,,,,,,,,,images/08possible.bmp,,,,,,,s,possible,288,288,216,144,72,0,288,216,144,72,0,288,216,144,72,0,288,288,216,144,72,0,288,216,144,72,0,288,216,144,72,0,peter t,2021-02-26_09h28.00.292,Impossible2021,2020.1.3,Win32,60,,,s,1,0.622055,0,103,103,74,1,4,,
,,,,,,,,,,,,,,,,,,,,,,images/22possible.bmp,images/22possible.bmp,,,,,,,,,,,,,,,,images/22possible.bmp,,,,,,,,,,,,,d,possible,216,216,144,72,0,288,216,144,72,0,288,216,144,72,0,288,144,144,72,0,288,216,144,72,0,288,216,144,72,0,288,216,peter t,2021-02-26_09h28.00.292,Impossible2021,2020.1.3,Win32,60,,,s,0,0.839755,0,104,104,33,1,2,,
,,,,,,,,,,,,,,,,,,,,,,,,,,,images/22possible.bmp,images/22possible.bmp,images/22possible.bmp,images/22possible.bmp,,,,,,,,,,,,,,images/22possible.bmp,,,,,,,,s,possible,216,216,144,72,0,288,216,144,72,0,288,216,144,72,0,288,216,216,144,72,0,288,216,144,72,0,288,216,144,72,0,288,peter t,2021-02-26_09h28.00.292,Impossible2021,2020.1.3,Win32,60,,,d,0,0.981695,0,105,105,75,1,4,,
,,,,,,,,,,,,,,,,,,,,,,images/03possible.bmp,images/03possible.bmp,,,,,,,,,,,,,,,images/03possible.bmp,,,,,,,,,,,,,,d,possible,72,72,0,288,216,144,72,0,288,216,144,72,0,288,216,144,0,0,288,216,144,72,0,288,216,144,72,0,288,216,144,72,peter t,2021-02-26_09h28.00.292,Impossible2021,2020.1.3,Win32,60,,,d,1,0.660925,0,106,106,30,1,2,,
,,,,,,,,,,,,,,,,,,,,,,images/05possible.bmp,images/05possible.bmp,,,,,,,,,,,,,,,,images/05possible.bmp,,,,,,,,,,,,,d,possible,216,216,144,72,0,288,216,144,72,0,288,216,144,72,0,288,144,144,72,0,288,216,144,72,0,288,216,144,72,0,288,216,peter t,2021-02-26_09h28.00.292,Impossible2021,2020.1.3,Win32,60,,,d,1,0.772255,0,107,107,31,1,2,,
,,,,,,,,,,,,,,,,,,,,,,,,,,,,,,,images/55possible.bmp,images/55possible.bmp,images/55possible.bmp,images/55possible.bmp,images/55possible.bmp,,,,,,,,,,,,,,,,images/55possible.bmp,s,possible,72,72,0,288,216,144,72,0,288,216,144,72,0,288,216,144,72,72,0,288,216,144,72,0,288,216,144,72,0,288,216,144,peter t,2021-02-26_09h28.00.292,Impossible2021,2020.1.3,Win32,60,,,s,1,0.47893,0,108,108,111,1,5,,
,,,,,,,,,,,,,,,,,,,,images/42possible.bmp,,,,,,,,,,,,,,,,images/42possible.bmp,,,,,,,,,,,,,,,,d,possible,144,144,72,0,288,216,144,72,0,288,216,144,72,0,288,216,72,72,0,288,216,144,72,0,288,216,144,72,0,288,216,144,peter t,2021-02-26_09h28.00.292,Impossible2021,2020.1.3,Win32,60,,,s,0,0.78638,0,109,109,19,1,1,,
,,,,,,,,,,,,,,,,,,,,,,,,,,,,,,,images/44possible.bmp,images/44possible.bmp,images/44possible.bmp,images/44possible.bmp,images/44possible.bmp,,,,,,,,,,,,,,images/44possible.bmp,,,s,possible,216,216,144,72,0,288,216,144,72,0,288,216,144,72,0,288,216,216,144,72,0,288,216,144,72,0,288,216,144,72,0,288,peter t,2021-02-26_09h28.00.292,Impossible2021,2020.1.3,Win32,60,,,d,0,0.781215,0,110,110,110,1,5,,
,,,,,,,,,,,,,,,,,,,,,,,,,,,images/69impossible.bmp,images/69impossible.bmp,images/69impossible.bmp,images/69impossible.bmp,,,,,,,,,,,,,,,,images/69impossible.bmp,,,,,,s,impossible,216,216,144,72,0,288,216,144,72,0,288,216,144,72,0,288,216,216,144,72,0,288,216,144,72,0,288,216,144,72,0,288,peter t,2021-02-26_09h28.00.292,Impossible2021,2020.1.3,Win32,60,,,s,1,1.036115,0,111,111,89,1,4,,
,,,,,,,,,,,,,,,,,,,,,,images/25possible.bmp,images/25possible.bmp,,,,,,,,,,,,,,,,images/25possible.bmp,,,,,,,,,,,,,d,possible,72,72,0,288,216,144,72,0,288,216,144,72,0,288,216,144,0,0,288,216,144,72,0,288,216,144,72,0,288,216,144,72,peter t,2021-02-26_09h28.00.292,Impossible2021,2020.1.3,Win32,60,,,d,1,0.85501,0,112,112,35,1,2,,
,,,,,,,,,,,,,,,,,,,,,,,,,,,images/05possible.bmp,images/05possible.bmp,images/05possible.bmp,images/05possible.bmp,,,,,,,,,,,,,,,,images/05possible.bmp,,,,,,s,possible,216,216,144,72,0,288,216,144,72,0,288,216,144,72,0,288,216,216,144,72,0,288,216,144,72,0,288,216,144,72,0,288,peter t,2021-02-26_09h28.00.292,Impossible2021,2020.1.3,Win32,60,,,s,1,0.64388,0,113,113,73,1,4,,
,,,,,,,,,,,,,,,,,,,,images/69possible.bmp,,,,,,,,,,,,,,,,images/69possible.bmp,,,,,,,,,,,,,,,,d,possible,216,216,144,72,0,288,216,144,72,0,288,216,144,72,0,288,144,144,72,0,288,216,144,72,0,288,216,144,72,0,288,216,peter t,2021-02-26_09h28.00.292,Impossible2021,2020.1.3,Win32,60,,,d,1,0.54157,0,114,114,23,1,1,,
,,,,,,,,,,,,,,,,,,,,,images/05impossible.bmp,,,,,,,,,,,,,,,,images/05impossible.bmp,,,,,,,,,,,,,,,d,impossible,216,216,144,72,0,288,216,144,72,0,288,216,144,72,0,288,144,144,72,0,288,216,144,72,0,288,216,144,72,0,288,216,peter t,2021-02-26_09h28.00.292,Impossible2021,2020.1.3,Win32,60,,,d,1,0.63541,0,115,115,7,1,1,,
,,,,,,,,,,,,,,,,,,,,,,,,,,,,,,,images/25impossible.bmp,images/25impossible.bmp,images/25impossible.bmp,images/25impossible.bmp,images/25impossible.bmp,,,,,,,,,,,,,images/25impossible.bmp,,,,s,impossible,72,72,0,288,216,144,72,0,288,216,144,72,0,288,216,144,72,72,0,288,216,144,72,0,288,216,144,72,0,288,216,144,peter t,2021-02-26_09h28.00.292,Impossible2021,2020.1.3,Win32,60,,,d,0,1.15723,0,116,116,101,1,5,,
,,,,,,,,,,,,,,,,,,,,,,,,,,,images/24possible.bmp,images/24possible.bmp,images/24possible.bmp,images/24possible.bmp,,,,,,,,,,,,,images/24possible.bmp,,,,,,,,,s,possible,0,0,288,216,144,72,0,288,216,144,72,0,288,216,144,72,0,0,288,216,144,72,0,288,216,144,72,0,288,216,144,72,peter t,2021-02-26_09h28.00.292,Impossible2021,2020.1.3,Win32,60,,,d,0,0.84163,0,117,117,76,1,4,,
,,,,,,,,,,,,,,,,,,,,,,,,images/22impossible.bmp,images/22impossible.bmp,images/22impossible.bmp,,,,,,,,,,,,,,,,images/22impossible.bmp,,,,,,,,,,s,impossible,216,216,144,72,0,288,216,144,72,0,288,216,144,72,0,288,216,216,144,72,0,288,216,144,72,0,288,216,144,72,0,288,peter t,2021-02-26_09h28.00.292,Impossible2021,2020.1.3,Win32,60,,,d,0,0.874695,0,118,118,51,1,3,,
,,,,,,,,,,,,,,,,,,,,,,,,images/25impossible.bmp,images/25impossible.bmp,images/25impossible.bmp,,,,,,,,,,,,,,images/25impossible.bmp,,,,,,,,,,,,d,impossible,72,72,0,288,216,144,72,0,288,216,144,72,0,288,216,144,0,0,288,216,144,72,0,288,216,144,72,0,288,216,144,72,peter t,2021-02-26_09h28.00.292,Impossible2021,2020.1.3,Win32,60,,,s,0,0.690745,0,119,119,59,1,3,,
,,,,,,,,,,,,,,,,,,,,,,,,,,,,,,,,,,,,,,,,,,,,,,,,,,,,,,,,,,,,,,,,,,,,,,,,,,,,,,,,,,,,,,peter t,2021-02-26_09h28.00.292,Impossible2021,2020.1.3,Win32,60,,,,,,,,,,,,k,3.11479
